testCS,correctAns,CS,US,blocks.thisRepN,blocks.thisTrialN,blocks.thisN,blocks.thisIndex,trials.thisRepN,trials.thisTrialN,trials.thisN,trials.thisIndex,p_port_4_start,p_port_4_end,key_resp_4.keys,key_resp_4.rt,key_resp_4.started,key_resp_4.stopped,text_2.started,text_2.stopped,p_port_4.started,p_port_4.stopped,Ready.started,Ready.stopped,vend.started,vend.stopped,p_port.started,p_port.stopped,p_port_start,p_port_end,p_port_3_start,p_port_3_end,vend_CS.started,vend_CS.stopped,p_port_3.started,p_port_3.stopped,Outcome.started,Outcome.stopped,reward.started,reward.stopped,p_port_2.started,p_port_2.stopped,vend_testy.started,vend_testy.stopped,choice_text.started,choice_text.stopped,key_resp_2.keys,key_resp_2.corr,key_resp_2.rt,key_resp_2.started,key_resp_2.stopped,option_text.started,option_text.stopped,p_port_2_start,p_port_2_end,image.started,image.stopped,p_port_5.started,p_port_5.stopped,p_port_5_start,p_port_5_end,feedback_text.started,feedback_text.stopped,text.started,text.stopped,finish_text.started,finish_text.stopped,Thankyou_text.started,Thankyou_text.stopped,version,participant,CB,participant initials,phase,date,expName,psychopyVersion,frameRate,
,,,,,,,,,,,,159,4,q,4.235722490132503,32.01875191499312,None,,,,,,,,,,,,,,,,,,,,,,,,,,,,,,,,,,,,,,,,,,,,,,,,,,,,H,035,yes,KR,Vpav,2020_Feb_14_1035,Pavlovian,3.2.4,60.00592329041204,
CByellow.png,k,green.png,2,0,0,0,3,0,0,0,1,,,,,,,32.01875191499312,None,0.014699238530738512,1.0128071120770983,36.285305983835315,None,49.0852540620499,None,0.003581033455702709,1.4903085270971133,111,4,117,4,50.81840838597236,53.818542718498065,2.006823730067481,3.5069527798541458,52.81841321590582,None,53.818542718498065,None,,,,,,,,,,,,,,,,,,,,,,,,,,,,,,H,035,yes,KR,Vpav,2020_Feb_14_1035,Pavlovian,3.2.4,60.00592329041204,
CByellow.png,k,red.png,1,0,0,0,3,0,1,1,0,,,,,,,,,,,,,54.70189167364788,None,0.0033161115998154855,1.4898036179210976,111,4,117,4,56.301709947399104,59.30187205204311,2.0065132257150253,3.506500396204501,58.30190374848098,None,59.30187205204311,None,,,,,,,,,,,,,,,,,,,,,,,,,,,,,,H,035,yes,KR,Vpav,2020_Feb_14_1035,Pavlovian,3.2.4,60.00592329041204,
CByellow.png,k,yellow.png,4,0,0,0,3,0,2,2,3,,,,,,,,,,,,,60.20190872935018,None,0.013141464223735966,1.5094971284524945,111,4,117,4,61.78523187454266,64.78524153440958,2.0095398431767535,3.5094726769139015,63.78520530990863,None,64.76858007501505,None,,,,,,,,,,,,,,,,,,,,,,,,,,,,,,H,035,yes,KR,Vpav,2020_Feb_14_1035,Pavlovian,3.2.4,60.00592329041204,
CByellow.png,k,blue.png,3,0,0,0,3,0,3,3,2,,,,,,,,,,,,,65.71850724867363,None,0.012083105042620446,1.5073686371270014,111,4,117,4,67.30186239217528,70.301813489099,2.0073672787084433,3.5073550529396016,69.30182767702809,None,70.28517497188841,None,,,,,,,,,,,,,,,,,,,,,,,,,,,,,,H,035,yes,KR,Vpav,2020_Feb_14_1035,Pavlovian,3.2.4,60.00592329041204,
CByellow.png,k,yellow.png,4,0,0,0,3,1,0,4,3,,,,,,,,,,,,,71.18519685752472,None,0.012545873047201894,1.5082434588348406,111,4,117,4,72.76852604013402,75.76846083603141,2.008224591907492,3.508231082129896,74.76844876119776,None,75.75179756541183,None,,,,,,,,,,,,,,,,,,,,,,,,,,,,,,H,035,yes,KR,Vpav,2020_Feb_14_1035,Pavlovian,3.2.4,60.00592329041204,
CByellow.png,k,red.png,1,0,0,0,3,1,1,5,0,,,,,,,,,,,,,76.71845381753428,None,0.014320692491310183,1.5117842227200526,111,4,117,4,78.35184646848847,81.3517697932939,2.0118024859057186,None,80.35177341574399,None,81.33510259835384,None,,,,,,,,,,,,,,,,,,,,,,,,,,,,,,H,035,yes,KR,Vpav,2020_Feb_14_1035,Pavlovian,3.2.4,60.00592329041204,
CByellow.png,k,green.png,2,0,0,0,3,1,2,6,1,,,,,,,,,,,,,82.21843072441516,None,0.00973322164009005,1.5026264272828485,111,4,117,4,83.8351072773512,86.83508433516727,2.0026618971069183,3.502613748706608,85.83508614639231,None,86.81845366659854,None,,,,,,,,,,,,,,,,,,,,,,,,,,,,,,H,035,yes,KR,Vpav,2020_Feb_14_1035,Pavlovian,3.2.4,60.00592329041204,
CByellow.png,k,blue.png,3,0,0,0,3,1,3,7,2,,,,,,,,,,,,,87.70173258771229,None,0.006398273298145796,1.4959932380916143,111,4,117,4,89.28514659602934,92.2851203332657,2.012743296579174,3.512684884571172,91.28517648124307,None,92.2851203332657,None,,,,,,,,,,,,,,,,,,,,,,,,,,,,,,H,035,yes,KR,Vpav,2020_Feb_14_1035,Pavlovian,3.2.4,60.00592329041204,
CByellow.png,k,yellow.png,4,0,0,0,3,2,0,8,3,,,,,,,,,,,,,93.18511655988004,None,0.0033714747141857515,1.489857471680807,111,4,117,4,94.75172602202201,97.75167742081521,2.006520289493892,3.5065412695175837,96.75169402371193,None,97.75167742081521,None,,,,,,,,,,,,,,,,,,,,,,,,,,,,,,H,035,yes,KR,Vpav,2020_Feb_14_1035,Pavlovian,3.2.4,60.00592329041204,
CByellow.png,k,blue.png,3,0,0,0,3,2,1,9,2,,,,,,,,,,,,,98.71834454028885,None,0.007819058615496033,1.498765499180081,111,4,117,4,100.31837985917718,103.31832189997567,2.0154126197103324,3.5154351090877753,102.31834393654663,None,103.31832189997567,None,,,,,,,,,,,,,,,,,,,,,,,,,,,,,,H,035,yes,KR,Vpav,2020_Feb_14_1035,Pavlovian,3.2.4,60.00592329041204,
CByellow.png,k,red.png,1,0,0,0,3,2,2,10,0,,,,,,,,,,,,,104.185007584505,None,0.016420264588305145,1.5159751560277073,111,4,117,4,105.83499920758914,108.83497535979222,1.9993443365237908,3.4993390537847517,107.834979585984,None,108.801685948667,None,,,,,,,,,,,,,,,,,,,,,,,,,,,,,,H,035,yes,KR,Vpav,2020_Feb_14_1035,Pavlovian,3.2.4,60.00592329041204,
CByellow.png,k,green.png,2,0,0,0,3,2,3,11,1,,,,,,,,,,,,,109.70168187341096,None,0.0035613514764918364,1.4902369233332138,111,4,117,4,111.30167130793143,114.30166436490163,2.0069570966070387,3.506947587675313,113.30166315741826,None,114.30166436490163,None,,,,,,,,,,,,,,,,,,,,,,,,,,,,,,H,035,yes,KR,Vpav,2020_Feb_14_1035,Pavlovian,3.2.4,60.00592329041204,
CByellow.png,k,,,0,0,0,3,,,,,,,,,,,,,,,,,115.23494819141615,None,,,,,,,,,,,,,,,0.016479069030538085,1.0162345536464272,116.85162202751599,None,117.85158640675581,None,k,1,4.809981661346683,117.85158640675581,None,116.85162202751599,None,159,4,116.85162202751599,None,0.009808991222598706,None,119,4,122.9182503565853,None,,,,,,,H,035,yes,KR,Vpav,2020_Feb_14_1035,Pavlovian,3.2.4,60.00592329041204,
CBgreen.png,n,blue.png,3,0,1,1,1,0,0,0,2,,,,,,,,,,,,,125.13490819352955,None,0.0024580135386713664,1.5047424211552425,111,4,117,4,126.76828635468337,129.76821179258513,2.004741364607071,3.504733365030006,128.76824982831113,None,129.7515328246809,None,,,,,,,,,,,,,,,,,,,,,,,,,,,,,,H,035,yes,KR,Vpav,2020_Feb_14_1035,Pavlovian,3.2.4,60.00592329041204,
CBgreen.png,n,yellow.png,4,0,1,1,1,0,1,1,3,,,,,,,,,,,,,130.68486495053094,None,0.003770064977288712,1.4906442678502572,111,4,117,4,132.16822054683962,135.16819186910925,2.007307991275411,3.507312670273677,134.16817888866262,None,135.16819186910925,None,,,,,,,,,,,,,,,,,,,,,,,,,,,,,,H,035,yes,KR,Vpav,2020_Feb_14_1035,Pavlovian,3.2.4,60.00592329041204,
CBgreen.png,n,green.png,2,0,1,1,1,0,2,2,1,,,,,,,,,,,,,136.18485846030762,None,0.012004739372969198,1.5071728436996636,111,4,117,4,137.78488110062153,140.784816802131,2.0071521655463584,3.5071450715813626,139.7848267638692,None,140.76815202215766,None,,,,,,,,,,,,,,,,,,,,,,,,,,,,,,H,035,yes,KR,Vpav,2020_Feb_14_1035,Pavlovian,3.2.4,60.00592329041204,
CBgreen.png,n,red.png,1,0,1,1,1,0,3,3,0,,,,,,,,,,,,,141.6681627385724,None,0.014669111820694525,1.512481604745517,111,4,117,4,143.23489083595632,146.2348159719868,2.01247541639259,3.5124713411369157,145.23481808508222,None,146.21818560528936,None,,,,,,,,,,,,,,,,,,,,,,,,,,,,,,H,035,yes,KR,Vpav,2020_Feb_14_1035,Pavlovian,3.2.4,60.00592329041204,
CBgreen.png,n,red.png,1,0,1,1,1,1,0,4,0,,,,,,,,,,,,,147.1681245519103,None,0.010788562112793443,1.5047328820355688,111,4,117,4,148.75148422347502,151.75144981019912,2.004734240454127,3.504739221323689,150.75143833910715,None,151.73478412461282,None,,,,,,,,,,,,,,,,,,,,,,,,,,,,,,H,035,yes,KR,Vpav,2020_Feb_14_1035,Pavlovian,3.2.4,60.00592329041204,
CBgreen.png,n,blue.png,3,0,1,1,1,1,1,5,2,,,,,,,,,,,,,152.66812228787967,None,0.011291961934148276,1.5057198789500035,111,4,117,4,154.18482404703173,157.18476669157099,2.0057339159438925,3.505704785407943,156.18476518221723,None,157.16809828914757,None,,,,,,,,,,,,,,,,,,,,,,,,,,,,,,H,035,yes,KR,Vpav,2020_Feb_14_1035,Pavlovian,3.2.4,60.00592329041204,
CBgreen.png,n,green.png,2,0,1,1,1,1,2,6,1,,,,,,,,,,,,,158.15142173621007,None,0.00966674968094594,1.5025092410205616,111,4,117,4,159.7347741628746,162.73477537035797,2.0024816198383633,3.5024331695676665,161.7348121986006,None,162.71807315839942,None,,,,,,,,,,,,,,,,,,,,,,,,,,,,,,H,035,yes,KR,Vpav,2020_Feb_14_1035,Pavlovian,3.2.4,60.00592329041204,
CBgreen.png,n,yellow.png,4,0,1,1,1,1,3,7,3,,,,,,,,,,,,,163.68473393858494,None,0.016540771430300083,1.5164035711313772,111,4,117,4,165.23477854000157,168.23475589968803,1.9997280747420518,3.4997710913376068,167.23474050427558,None,168.20139524704337,None,,,,,,,,,,,,,,,,,,,,,,,,,,,,,,H,035,yes,KR,Vpav,2020_Feb_14_1035,Pavlovian,3.2.4,60.00592329041204,
CBgreen.png,n,green.png,2,0,1,1,1,2,0,8,1,,,,,,,,,,,,,169.18470963798154,None,0.013368531474043266,1.5099047144685755,111,4,117,4,170.80139313394739,173.80136536183,2.0099003373416053,3.5098941489886784,172.80137471982653,None,173.78468307334697,None,,,,,,,,,,,,,,,,,,,,,,,,,,,,,,H,035,yes,KR,Vpav,2020_Feb_14_1035,Pavlovian,3.2.4,60.00592329041204,
CBgreen.png,n,blue.png,3,0,1,1,1,2,1,9,2,,,,,,,,,,,,,174.66801542560006,None,0.012953398688296147,1.5092399344939622,111,4,117,4,176.2180597251463,179.21799965284845,2.009255178971216,3.5092444625561257,178.21800297342816,None,179.20132823171662,None,,,,,,,,,,,,,,,,,,,,,,,,,,,,,,H,035,yes,KR,Vpav,2020_Feb_14_1035,Pavlovian,3.2.4,60.00592329041204,
CBgreen.png,n,red.png,1,0,1,1,1,2,2,10,0,,,,,,,,,,,,,180.15133872172828,None,0.016163855494596646,1.5154923438012702,111,4,117,4,181.85141313289114,184.85128513965356,2.0154994377653566,None,183.8513077799662,None,184.83446821677353,None,,,,,,,,,,,,,,,,,,,,,,,,,,,,,,H,035,yes,KR,Vpav,2020_Feb_14_1035,Pavlovian,3.2.4,60.00592329041204,
CBgreen.png,n,yellow.png,4,0,1,1,1,2,3,11,3,,,,,,,,,,,,,185.66800878444155,None,0.008330005206516944,1.4998717350772495,111,4,117,4,187.16797512584253,190.16792924147376,1.999873999108786,3.499851207860047,189.16794373127505,None,190.1513239300566,None,,,,,,,,,,,,,,,,,,,,,,,,,,,,,,H,035,yes,KR,Vpav,2020_Feb_14_1035,Pavlovian,3.2.4,60.00592329041204,
CBgreen.png,n,,,0,1,1,1,,,,,,,,,,,,,,,,,191.23467952636474,None,,,,,,,,,,,,,,,0.01647786154626374,1.01606943029401,192.85133102402142,None,193.85133132589272,None,n,1,3.506544107103764,193.85133132589272,None,192.85133102402142,None,159,4,192.85133102402142,None,0.013718218659960257,None,119,4,197.61790033734087,None,,,,,,,H,035,yes,KR,Vpav,2020_Feb_14_1035,Pavlovian,3.2.4,60.00592329041204,
CBred.png,b,red.png,1,0,2,2,0,0,0,0,0,,,,,,,,,,,,,199.83457538092352,None,0.0039035522640915588,1.4909495196470743,111,4,117,4,201.48458421064606,204.48453198698917,2.0076072056563135,3.507599507949635,203.48453500569758,None,204.48453198698917,None,,,,,,,,,,,,,,,,,,,,,,,,,,,,,,H,035,yes,KR,Vpav,2020_Feb_14_1035,Pavlovian,3.2.4,60.00592329041204,
CBred.png,b,yellow.png,4,0,2,2,0,0,1,1,3,,,,,,,,,,,,,205.38454723146697,None,0.010708747462558676,1.5045951081829116,111,4,117,4,206.90123087836855,209.90118982393415,2.0045922404096927,3.5045700529026362,208.9011943519963,None,209.88452293086448,None,,,,,,,,,,,,,,,,,,,,,,,,,,,,,,H,035,yes,KR,Vpav,2020_Feb_14_1035,Pavlovian,3.2.4,60.00592329041204,
CBred.png,b,blue.png,3,0,2,2,0,0,2,2,2,,,,,,,,,,,,,210.8845156859643,None,0.00393573169640149,1.4910248666101324,111,4,117,4,212.38455508010884,215.38448897039416,2.007686175069466,3.5076990045799903,214.3845046676779,None,215.38448897039416,None,,,,,,,,,,,,,,,,,,,,,,,,,,,,,,H,035,yes,KR,Vpav,2020_Feb_14_1035,Pavlovian,3.2.4,60.00592329041204,
CBred.png,b,green.png,2,0,2,2,0,0,3,3,1,,,,,,,,,,,,,216.35123336880315,None,0.009911204690070008,1.5029644018795807,111,4,117,4,218.03453794893903,221.03448119721998,2.002982665066156,None,220.0345113843041,None,221.0178076629918,None,,,,,,,,,,,,,,,,,,,,,,,,,,,,,,H,035,yes,KR,Vpav,2020_Feb_14_1035,Pavlovian,3.2.4,60.00592329041204,
CBred.png,b,yellow.png,4,0,2,2,0,1,0,4,3,,,,,,,,,,,,,221.8678493966354,None,0.014245466277316154,1.5116833374841008,111,4,117,4,223.38451100696602,226.3844500290552,2.011705223120771,3.511669451425405,225.3844527458932,None,226.3678595093088,None,,,,,,,,,,,,,,,,,,,,,,,,,,,,,,H,035,yes,KR,Vpav,2020_Feb_14_1035,Pavlovian,3.2.4,60.00592329041204,
CBred.png,b,red.png,1,0,2,2,0,1,1,5,0,,,,,,,,,,,,,227.38444550099211,None,0.011291780811916396,1.5057483755581416,111,4,117,4,228.934464745259,231.9344264076617,2.0057690537105373,3.505747771816459,230.93442942637012,None,231.91775921272074,None,,,,,,,,,,,,,,,,,,,,,,,,,,,,,,H,035,yes,KR,Vpav,2020_Feb_14_1035,Pavlovian,3.2.4,60.00592329041204,
CBred.png,b,blue.png,3,0,2,2,0,1,2,6,2,,,,,,,,,,,,,232.8677944561423,None,0.01472839925372682,1.5126537918740723,111,4,117,4,234.3844633113722,237.38441229519958,2.0126533390684926,3.512648056328544,236.38441682326265,None,237.3677734761186,None,,,,,,,,,,,,,,,,,,,,,,,,,,,,,,H,035,yes,KR,Vpav,2020_Feb_14_1035,Pavlovian,3.2.4,60.00592329041204,
CBred.png,b,green.png,2,0,2,2,0,1,3,7,1,,,,,,,,,,,,,238.35106764170996,None,0.011528024934705172,1.5062086078469292,111,4,117,4,240.05109254605395,243.05102704008095,2.006203928848663,None,242.05102945504768,None,243.03436105262335,None,,,,,,,,,,,,,,,,,,,,,,,,,,,,,,H,035,yes,KR,Vpav,2020_Feb_14_1035,Pavlovian,3.2.4,60.00592329041204,
CBred.png,b,yellow.png,4,0,2,2,0,2,0,8,3,,,,,,,,,,,,,243.8843602224788,None,0.003252235730542452,1.4896968763914629,111,4,117,4,245.4010571516974,248.40099979623756,2.0063578829795006,3.5063806742282395,247.40101428603793,None,248.40099979623756,None,,,,,,,,,,,,,,,,,,,,,,,,,,,,,,H,035,yes,KR,Vpav,2020_Feb_14_1035,Pavlovian,3.2.4,60.00592329041204,
CBred.png,b,blue.png,3,0,2,2,0,2,1,9,2,,,,,,,,,,,,,249.38437093889388,None,0.015091791377017216,1.5133241866469689,111,4,117,4,250.9177474397584,253.91766955708044,2.013346676024412,3.5133244885173553,252.9176535579254,None,253.90103043612817,None,,,,,,,,,,,,,,,,,,,,,,,,,,,,,,H,035,yes,KR,Vpav,2020_Feb_14_1035,Pavlovian,3.2.4,60.00592329041204,
CBred.png,b,red.png,1,0,2,2,0,2,2,10,0,,,,,,,,,,,,,254.85099504177197,None,0.0036202766650603735,1.4903740330701112,111,4,117,4,256.5176973291982,259.5176357475457,2.0070190405040194,None,258.517621861487,None,259.5176357475457,None,,,,,,,,,,,,,,,,,,,,,,,,,,,,,,H,035,yes,KR,Vpav,2020_Feb_14_1035,Pavlovian,3.2.4,60.00592329041204,
CBred.png,b,green.png,2,0,2,2,0,2,3,11,1,,,,,,,,,,,,,260.36763763423824,None,0.0001376531063215225,1.500091014060672,111,4,117,4,261.9510033432198,264.95095625136764,2.000086335062406,3.5000979570904747,263.95094296905063,None,264.93428271713947,None,,,,,,,,,,,,,,,,,,,,,,,,,,,,,,H,035,yes,KR,Vpav,2020_Feb_14_1035,Pavlovian,3.2.4,60.00592329041204,
CBred.png,b,,,0,2,2,0,,,,,,,,,,,,,,,,,265.9176118997484,None,,,,,,,,,,,,,,,0.016468805421027355,1.0162052721734653,267.51759559872335,None,268.5175971080771,None,b,1,2.3815991607989417,268.5175971080771,None,267.51759559872335,None,159,4,267.51759559872335,None,0.011728889795449504,None,119,4,271.15094628963016,None,,,,,,,H,035,yes,KR,Vpav,2020_Feb_14_1035,Pavlovian,3.2.4,60.00592329041204,
CBblue.png,s,green.png,2,0,3,3,2,0,0,0,1,,,,,,,,,,,,,273.36757575071533,None,0.005146294156475051,1.4934229889731796,111,4,117,4,275.0342602277615,278.03425841653643,2.0101229369001885,None,277.034242115511,None,278.03425841653643,None,,,,,,,,,,,,,,,,,,,,,,,,,,,,,,H,035,yes,KR,Vpav,2020_Feb_14_1035,Pavlovian,3.2.4,60.00592329041204,
CBblue.png,s,blue.png,3,0,3,3,2,0,1,1,2,,,,,,,,,,,,,278.9009223663661,None,0.0006979253921599593,1.501246273781362,111,4,117,4,280.4009674960571,283.40090380130914,2.0012425003960743,3.501252613068573,282.4008884058958,None,283.3841949481912,None,,,,,,,,,,,,,,,,,,,,,,,,,,,,,,H,035,yes,KR,Vpav,2020_Feb_14_1035,Pavlovian,3.2.4,60.00592329041204,
CBblue.png,s,red.png,1,0,3,3,2,0,2,2,0,,,,,,,,,,,,,284.3841807602621,None,0.0010061355233119684,1.5018279788973814,111,4,117,4,285.96757363761935,288.96748790629954,2.0018242055120936,3.501843676182034,287.9674966605544,None,288.95082131510026,None,,,,,,,,,,,,,,,,,,,,,,,,,,,,,,H,035,yes,KR,Vpav,2020_Feb_14_1035,Pavlovian,3.2.4,60.00592329041204,
CBblue.png,s,yellow.png,4,0,3,3,2,0,3,3,3,,,,,,,,,,,,,289.90090757469443,None,0.014117291916591057,1.5114156987929164,111,4,117,4,291.4008730104824,294.40083406914346,2.011420679661569,3.5114292829812257,293.4008404084316,None,294.3841294422182,None,,,,,,,,,,,,,,,,,,,,,,,,,,,,,,H,035,yes,KR,Vpav,2020_Feb_14_1035,Pavlovian,3.2.4,60.00592329041204,
CBblue.png,s,blue.png,3,0,3,3,2,1,0,4,2,,,,,,,,,,,,,295.41747590693376,None,0.015708573885603982,1.514522070530802,111,4,117,4,296.96752533828385,299.9674589266988,2.0145243345623385,3.5145172405973426,298.9674574173441,None,299.95078750556604,None,,,,,,,,,,,,,,,,,,,,,,,,,,,,,,H,035,yes,KR,Vpav,2020_Feb_14_1035,Pavlovian,3.2.4,60.00592329041204,
CBblue.png,s,yellow.png,4,0,3,3,2,1,1,5,3,,,,,,,,,,,,,300.8841383474082,None,0.011146580935019301,1.505493294693224,111,4,117,4,302.38412431041434,305.38408899152546,2.0054626548026135,3.505457975805257,304.38409321771724,None,305.3674136460713,None,,,,,,,,,,,,,,,,,,,,,,,,,,,,,,H,035,yes,KR,Vpav,2020_Feb_14_1035,Pavlovian,3.2.4,60.00592329041204,
CBblue.png,s,red.png,1,0,3,3,2,1,2,6,0,,,,,,,,,,,,,306.4340954062809,None,0.0003439516403886955,1.500526130695107,111,4,117,4,308.034134951361,311.0340812183513,2.0005341302730812,3.500509527799295,310.0340972175054,None,311.01743032443574,None,,,,,,,,,,,,,,,,,,,,,,,,,,,,,,H,035,yes,KR,Vpav,2020_Feb_14_1035,Pavlovian,3.2.4,60.00592329041204,
CBblue.png,s,green.png,2,0,3,3,2,1,3,7,1,,,,,,,,,,,,,311.90074124385865,None,0.007929120725748362,1.4990056676242602,111,4,117,4,313.50076418604294,316.5007143773537,1.9990040073353157,3.4989576701600527,315.50071649045003,None,316.5007143773537,None,,,,,,,,,,,,,,,,,,,,,,,,,,,,,,H,035,yes,KR,Vpav,2020_Feb_14_1035,Pavlovian,3.2.4,60.00592329041204,
CBblue.png,s,blue.png,3,0,3,3,2,2,0,8,2,,,,,,,,,,,,,317.4007127170644,None,0.013456315515213646,1.5101201898760337,111,4,117,4,318.9507709026693,321.95068758631623,2.010199430972534,3.5101373965144376,320.9506782283206,None,321.9341263480419,None,,,,,,,,,,,,,,,,,,,,,,,,,,,,,,H,035,yes,KR,Vpav,2020_Feb_14_1035,Pavlovian,3.2.4,60.00592329041204,
CBblue.png,s,yellow.png,4,0,3,3,2,2,1,9,3,,,,,,,,,,,,,322.8840037130112,None,0.007133630675525637,1.4973229791630729,111,4,117,4,324.5174033069952,327.51736104507745,2.0140063241933603,3.5140079844832144,326.517355309531,None,327.51736104507745,None,,,,,,,,,,,,,,,,,,,,,,,,,,,,,,H,035,yes,KR,Vpav,2020_Feb_14_1035,Pavlovian,3.2.4,60.00592329041204,
CBblue.png,s,green.png,2,0,3,3,2,2,2,10,1,,,,,,,,,,,,,328.4173781007794,None,0.008001811225767597,1.4990976778590266,111,4,117,4,330.0006789075296,333.00064056993233,1.9990908857644172,3.499082584316966,332.0006272876153,None,332.983972167508,None,,,,,,,,,,,,,,,,,,,,,,,,,,,,,,H,035,yes,KR,Vpav,2020_Feb_14_1035,Pavlovian,3.2.4,60.00592329041204,
CBblue.png,s,red.png,1,0,3,3,2,2,3,11,0,,,,,,,,,,,,,333.9006367965467,None,0.007331476827857841,1.4978085082302641,111,4,117,4,335.4673171983368,338.46729757673165,2.0144824952649287,3.5144566853077777,337.4672960673779,None,338.46729757673165,None,,,,,,,,,,,,,,,,,,,,,,,,,,,,,,H,035,yes,KR,Vpav,2020_Feb_14_1035,Pavlovian,3.2.4,60.00592329041204,
CBblue.png,s,,,0,3,3,2,,,,,,,,,,,,,,,,,339.4506122695402,None,,,,,,,,,,,,,,,0.0164781634175597,1.0162261012619638,341.0672776532565,None,342.0672598428764,None,s,1,2.0002587033141026,342.0672598428764,None,341.0672776532565,None,159,4,341.0672776532565,None,0.009988302504098101,None,119,4,344.3172653520196,None,,,,,,,H,035,yes,KR,Vpav,2020_Feb_14_1035,Pavlovian,3.2.4,60.00592329041204,
CBgreen.png,n,yellow.png,4,1,0,4,1,0,0,0,3,,,,,,,,,,,,,346.5339521685646,None,0.003672681443276815,1.4905399412855331,111,4,117,4,348.1505991381591,351.1505801202957,2.007226305025142,3.5071546106992173,350.15060426996297,None,351.1505801202957,None,,,,,,,,,,,,,,,,,,,,,,,,,,,,,,H,035,yes,KR,Vpav,2020_Feb_14_1035,Pavlovian,3.2.4,60.00592329041204,
CBgreen.png,n,blue.png,3,1,0,4,1,0,1,1,2,,,,,,,,,,,,,352.08387330480673,None,0.012427418928382394,1.5080051619906953,111,4,117,4,353.71723697616017,356.71718565811625,2.0080001811220427,None,355.71720346849634,None,356.7005380847804,None,,,,,,,,,,,,,,,,,,,,,,,,,,,,,,H,035,yes,KR,Vpav,2020_Feb_14_1035,Pavlovian,3.2.4,60.00592329041204,
CBgreen.png,n,red.png,1,1,0,4,1,0,2,2,0,,,,,,,,,,,,,357.55056864920334,None,0.01633229942581238,1.515838287788938,111,4,117,4,359.23392092493214,362.2338665881807,1.9991356230239035,None,361.2338668900511,None,362.2004908419931,None,,,,,,,,,,,,,,,,,,,,,,,,,,,,,,H,035,yes,KR,Vpav,2020_Feb_14_1035,Pavlovian,3.2.4,60.00592329041204,
CBgreen.png,n,green.png,2,1,0,4,1,0,3,3,1,,,,,,,,,,,,,363.06717290407323,None,0.011146822431328474,1.5055252326283153,111,4,117,4,364.65053891492516,367.6505066147447,2.0055202517596626,3.5055158746326924,366.6504851819154,None,367.6338683994054,None,,,,,,,,,,,,,,,,,,,,,,,,,,,,,,H,035,yes,KR,Vpav,2020_Feb_14_1035,Pavlovian,3.2.4,60.00592329041204,
CBgreen.png,n,green.png,2,1,0,4,1,1,0,4,1,,,,,,,,,,,,,368.5838157984108,None,0.013261729568512237,1.5096487883656664,111,4,117,4,370.1671799980377,373.1671624895289,2.009646826205426,3.509671428679212,372.1671519240499,None,373.15049499271754,None,,,,,,,,,,,,,,,,,,,,,,,,,,,,,,H,035,yes,KR,Vpav,2020_Feb_14_1035,Pavlovian,3.2.4,60.00592329041204,
CBgreen.png,n,red.png,1,1,0,4,1,1,1,5,0,,,,,,,,,,,,,374.08381776057104,None,0.007639445461791183,1.4984509497598992,111,4,117,4,375.6671375851847,378.6671007569412,2.0150811655221332,3.515089165099198,377.6671101149377,None,378.6671007569412,None,,,,,,,,,,,,,,,,,,,,,,,,,,,,,,H,035,yes,KR,Vpav,2020_Feb_14_1035,Pavlovian,3.2.4,60.00592329041204,
CBgreen.png,n,blue.png,3,1,0,4,1,1,2,6,2,,,,,,,,,,,,,379.5671362267658,None,0.0056725757885942585,1.494503807345609,111,4,117,4,381.1171267933014,384.11705857049037,2.011155455938024,3.5111489657147104,383.1170655135202,None,384.11705857049037,None,,,,,,,,,,,,,,,,,,,,,,,,,,,,,,H,035,yes,KR,Vpav,2020_Feb_14_1035,Pavlovian,3.2.4,60.00592329041204,
CBgreen.png,n,yellow.png,4,1,0,4,1,1,3,7,3,,,,,,,,,,,,,385.0504486555428,None,0.007737130868008535,1.4986201785559388,111,4,117,4,386.58376900842995,389.58371799225733,2.0152826944986373,3.5152912978173845,388.5837059174237,None,389.58371799225733,None,,,,,,,,,,,,,,,,,,,,,,,,,,,,,,H,035,yes,KR,Vpav,2020_Feb_14_1035,Pavlovian,3.2.4,60.00592329041204,
CBgreen.png,n,green.png,2,1,0,4,1,2,0,8,1,,,,,,,,,,,,,390.5837016912319,None,0.002897960108384723,1.4889728089838172,111,4,117,4,392.13354252982845,395.13367625861247,2.0056676251069803,3.505608307486,394.13372908601104,None,395.13367625861247,None,,,,,,,,,,,,,,,,,,,,,,,,,,,,,,H,035,yes,KR,Vpav,2020_Feb_14_1035,Pavlovian,3.2.4,60.00592329041204,
CBgreen.png,n,blue.png,3,1,0,4,1,2,1,9,2,,,,,,,,,,,,,396.067031930389,None,0.012294354260120599,1.507713916999819,111,4,117,4,397.63370870972904,400.63365950478146,2.007737010119854,3.5077069739700164,399.63367399458184,None,400.6170403073047,None,,,,,,,,,,,,,,,,,,,,,,,,,,,,,,H,035,yes,KR,Vpav,2020_Feb_14_1035,Pavlovian,3.2.4,60.00592329041204,
CBgreen.png,n,red.png,1,1,0,4,1,2,2,10,0,,,,,,,,,,,,,401.5504225437144,None,0.007173598375629808,1.4975002980972931,111,4,117,4,403.15040805391436,406.15034284981175,2.0141594934602836,3.5141889258684387,405.15029817292725,None,406.15034284981175,None,,,,,,,,,,,,,,,,,,,,,,,,,,,,,,H,035,yes,KR,Vpav,2020_Feb_14_1035,Pavlovian,3.2.4,60.00592329041204,
CBgreen.png,n,yellow.png,4,1,0,4,1,2,3,11,3,,,,,,,,,,,,,407.0670156293627,None,0.007921573954263295,1.499011403170698,111,4,117,4,408.60032451115785,411.6002710800185,1.9990501935735665,3.4989938946619077,410.6002952296858,None,411.58364524138324,None,,,,,,,,,,,,,,,,,,,,,,,,,,,,,,H,035,yes,KR,Vpav,2020_Feb_14_1035,Pavlovian,3.2.4,60.00592329041204,
CBgreen.png,n,,,1,0,4,1,,,,,,,,,,,,,,,,,412.6502889658659,None,,,,,,,,,,,,,,,0.016477861547173234,1.0162064796577397,414.15027040080895,None,415.15026074094203,None,n,1,2.6065762563484896,415.15026074094203,None,414.15027040080895,None,159,4,414.15027040080895,None,0.013766819865850266,None,119,4,418.0169271057375,None,,,,,,,H,035,yes,KR,Vpav,2020_Feb_14_1035,Pavlovian,3.2.4,60.00592329041204,
CBred.png,b,yellow.png,4,1,1,5,0,0,0,0,3,,,,,,,,,,,,,420.2335807164909,None,0.0032724610773584573,1.489728270958949,111,4,117,4,421.8667448512151,424.86673971941127,2.006228380387256,3.5064123706670216,423.86674394560305,None,424.86673971941127,None,,,,,,,,,,,,,,,,,,,,,,,,,,,,,,H,035,yes,KR,Vpav,2020_Feb_14_1035,Pavlovian,3.2.4,60.00592329041204,
CBred.png,b,red.png,1,1,1,5,0,0,1,1,0,,,,,,,,,,,,,425.7835785279267,None,0.010092327197526174,1.5032886111675907,111,4,117,4,427.4502651180692,430.45018693352085,2.0032899695870583,None,429.45019085784133,None,430.4335167198715,None,,,,,,,,,,,,,,,,,,,,,,,,,,,,,,H,035,yes,KR,Vpav,2020_Feb_14_1035,Pavlovian,3.2.4,60.00592329041204,
CBred.png,b,blue.png,3,1,1,5,0,0,2,2,2,,,,,,,,,,,,,431.26693472797706,None,0.0005011659750380204,1.500820394393486,111,4,117,4,432.8335586799185,435.8335073618755,2.0008253752621386,3.500817979426756,434.833513097421,None,435.81684258190126,None,,,,,,,,,,,,,,,,,,,,,,,,,,,,,,H,035,yes,KR,Vpav,2020_Feb_14_1035,Pavlovian,3.2.4,60.00592329041204,
CBred.png,b,green.png,2,1,1,5,0,0,3,3,1,,,,,,,,,,,,,436.7501741040096,None,0.015334254039771622,1.5137867131543317,111,4,117,4,438.4502128944132,441.45015312398573,2.013782939769044,None,440.45015614269414,None,441.433485325304,None,,,,,,,,,,,,,,,,,,,,,,,,,,,,,,H,035,yes,KR,Vpav,2020_Feb_14_1035,Pavlovian,3.2.4,60.00592329041204,
CBred.png,b,blue.png,3,1,1,5,0,1,0,4,2,,,,,,,,,,,,,442.28350441863495,None,0.01251441810563847,1.5081395548904766,111,4,117,4,443.81687699517806,446.81679790501676,2.0082009856078002,3.5081582708835413,445.81679790501676,None,446.800165425223,None,,,,,,,,,,,,,,,,,,,,,,,,,,,,,,H,035,yes,KR,Vpav,2020_Feb_14_1035,Pavlovian,3.2.4,60.00592329041204,
CBred.png,b,yellow.png,4,1,1,5,0,1,1,5,3,,,,,,,,,,,,,447.75012761590006,None,3.097194803558523e-05,1.4998237376130419,111,4,117,4,449.3835036639575,452.38351272008276,1.9998398877032741,3.49988441365349,451.38347951429023,None,452.366773981752,None,,,,,,,,,,,,,,,,,,,,,,,,,,,,,,H,035,yes,KR,Vpav,2020_Feb_14_1035,Pavlovian,3.2.4,60.00592329041204,
CBred.png,b,green.png,2,1,1,5,0,1,2,6,1,,,,,,,,,,,,,453.28347242032487,None,0.014649429841483652,1.5124601115412588,111,4,117,4,454.8501449734731,457.8500767506621,2.0124705260850533,3.512451659157705,456.85008097685386,None,457.8334113669471,None,,,,,,,,,,,,,,,,,,,,,,,,,,,,,,H,035,yes,KR,Vpav,2020_Feb_14_1035,Pavlovian,3.2.4,60.00592329041204,
CBred.png,b,red.png,1,1,1,5,0,1,3,7,0,,,,,,,,,,,,,458.78345234591416,None,0.00933324277320935,1.501830997608522,111,4,117,4,460.35008867456054,463.3500548650263,2.001825412998187,3.5018168096785303,462.35005727999305,None,463.3333870663437,None,,,,,,,,,,,,,,,,,,,,,,,,,,,,,,H,035,yes,KR,Vpav,2020_Feb_14_1035,Pavlovian,3.2.4,60.00592329041204,
CBred.png,b,blue.png,3,1,1,5,0,2,0,8,2,,,,,,,,,,,,,464.266719494065,None,0.009841714021604275,1.5029145328162485,111,4,117,4,465.80009357996187,468.8000504124311,2.0029376259362834,3.5028357445262372,467.8000712415196,None,468.78335272853565,None,,,,,,,,,,,,,,,,,,,,,,,,,,,,,,H,035,yes,KR,Vpav,2020_Feb_14_1035,Pavlovian,3.2.4,60.00592329041204,
CBred.png,b,yellow.png,4,1,1,5,0,2,1,9,3,,,,,,,,,,,,,469.7500403752256,None,0.01587973465484538,1.5148882398661954,111,4,117,4,471.2833951413886,474.28332872980354,2.0148871833180237,3.514881900578075,473.2833269185776,None,474.2666533843494,None,,,,,,,,,,,,,,,,,,,,,,,,,,,,,,H,035,yes,KR,Vpav,2020_Feb_14_1035,Pavlovian,3.2.4,60.00592329041204,
CBred.png,b,red.png,1,1,1,5,0,2,2,10,0,,,,,,,,,,,,,475.2833414083789,None,0.00902098757069325,1.5011592142300287,111,4,117,4,476.85001999894394,479.84998075573367,2.001156648328106,3.501150761846475,478.8499834725717,None,479.8333105420843,None,,,,,,,,,,,,,,,,,,,,,,,,,,,,,,H,035,yes,KR,Vpav,2020_Feb_14_1035,Pavlovian,3.2.4,60.00592329041204,
CBred.png,b,green.png,2,1,1,5,0,2,3,11,1,,,,,,,,,,,,,480.76664206419264,None,0.0035989042080473155,1.490393715047503,111,4,117,4,482.31671564521093,485.31660455674046,2.006950274324481,3.5069806123437957,484.31660878293224,None,485.31660455674046,None,,,,,,,,,,,,,,,,,,,,,,,,,,,,,,H,035,yes,KR,Vpav,2020_Feb_14_1035,Pavlovian,3.2.4,60.00592329041204,
CBred.png,b,,,1,1,5,0,,,,,,,,,,,,,,,,,486.39999003826233,None,,,,,,,,,,,,,,,0.016476050322125957,1.0160661097152115,487.8999841517807,None,488.8999799255889,None,b,1,1.0871812055211194,488.8999799255889,None,487.8999841517807,None,159,4,487.8999841517807,None,0.006760095693607582,None,119,4,490.24993517323674,None,,,,,,,H,035,yes,KR,Vpav,2020_Feb_14_1035,Pavlovian,3.2.4,60.00592329041204,
CBblue.png,s,green.png,2,1,2,6,2,0,0,0,1,,,,,,,,,,,,,492.4665884821179,None,0.0004790690309164347,1.5008227489870478,111,4,117,4,494.14997668047727,497.1498855154823,2.0007896941297076,None,496.14989759031596,None,497.1332168111876,None,,,,,,,,,,,,,,,,,,,,,,,,,,,,,,H,035,yes,KR,Vpav,2020_Feb_14_1035,Pavlovian,3.2.4,60.00592329041204,
CBblue.png,s,yellow.png,4,1,2,6,2,0,1,1,3,,,,,,,,,,,,,497.99995321001916,None,0.009418551472663239,1.5020270929080652,111,4,117,4,499.5165840295231,502.51658131268596,2.0020402242898854,3.5020171311698505,501.5165861426194,None,502.4998791007265,None,,,,,,,,,,,,,,,,,,,,,,,,,,,,,,H,035,yes,KR,Vpav,2020_Feb_14_1035,Pavlovian,3.2.4,60.00592329041204,
CBblue.png,s,blue.png,3,1,2,6,2,0,2,2,2,,,,,,,,,,,,,503.51658191642764,None,0.009937890073160816,1.5029850498458472,111,4,117,4,505.04989562815535,508.0498802327429,2.0030235383783292,3.5029768993326797,507.0498606111378,None,508.0332248107652,None,,,,,,,,,,,,,,,,,,,,,,,,,,,,,,H,035,yes,KR,Vpav,2020_Feb_14_1035,Pavlovian,3.2.4,60.00592329041204,
CBblue.png,s,red.png,1,1,2,6,2,0,3,3,0,,,,,,,,,,,,,508.9831830771209,None,0.0022841963054816006,1.5043754065818575,111,4,117,4,510.64985276249536,513.6498264997326,2.0044081595679017,None,512.6498292165697,None,513.6331988498723,None,,,,,,,,,,,,,,,,,,,,,,,,,,,,,,H,035,yes,KR,Vpav,2020_Feb_14_1035,Pavlovian,3.2.4,60.00592329041204,
CBblue.png,s,red.png,1,1,2,6,2,1,0,4,0,,,,,,,,,,,,,514.4998268770705,None,0.0011323175367579097,1.502049853968856,111,4,117,4,516.0665504463914,519.0664502252712,2.002043061875156,3.5020199687560307,518.0664773936469,None,519.0497839359432,None,,,,,,,,,,,,,,,,,,,,,,,,,,,,,,H,035,yes,KR,Vpav,2020_Feb_14_1035,Pavlovian,3.2.4,60.00592329041204,
CBblue.png,s,yellow.png,4,1,2,6,2,1,1,5,3,,,,,,,,,,,,,519.9998001615013,None,0.0001532296400910127,1.5001364758081763,111,4,117,4,521.5165520312139,524.5165595779845,2.000124551909721,3.500095723244158,523.5164901476901,None,524.4997577486474,None,,,,,,,,,,,,,,,,,,,,,,,,,,,,,,H,035,yes,KR,Vpav,2020_Feb_14_1035,Pavlovian,3.2.4,60.00592329041204,
CBblue.png,s,green.png,2,1,2,6,2,1,2,6,1,,,,,,,,,,,,,525.5165076561998,None,0.0034243021118527395,1.4899335431327927,111,4,117,4,527.183168285449,530.1830916102545,2.00659454972174,None,529.1830653474908,None,530.1830916102545,None,,,,,,,,,,,,,,,,,,,,,,,,,,,,,,H,035,yes,KR,Vpav,2020_Feb_14_1035,Pavlovian,3.2.4,60.00592329041204,
CBblue.png,s,blue.png,3,1,2,6,2,1,3,7,2,,,,,,,,,,,,,530.9997337499153,None,0.015356592481111875,1.5138235413969596,111,4,117,4,532.5331603613395,535.5331045152334,2.0138378802621446,3.5138301825554663,534.5331196087755,None,535.5164122650121,None,,,,,,,,,,,,,,,,,,,,,,,,,,,,,,H,035,yes,KR,Vpav,2020_Feb_14_1035,Pavlovian,3.2.4,60.00592329041204,
CBblue.png,s,blue.png,3,1,2,6,2,2,0,8,2,,,,,,,,,,,,,536.4830630834595,None,0.002108447100908961,1.5040179311281463,111,4,117,4,538.0164196608484,541.0163674371925,2.0040322699933313,3.5040493256956324,540.0163798138965,None,540.9997008459932,None,,,,,,,,,,,,,,,,,,,,,,,,,,,,,,H,035,yes,KR,Vpav,2020_Feb_14_1035,Pavlovian,3.2.4,60.00592329041204,
CBblue.png,s,red.png,1,1,2,6,2,2,1,9,0,,,,,,,,,,,,,541.9830203687352,None,0.014715539556164003,1.5126412340478055,111,4,117,4,543.6497775966554,546.6497114869408,2.0126217633787746,None,545.6497027326859,None,546.6330485181916,None,,,,,,,,,,,,,,,,,,,,,,,,,,,,,,H,035,yes,KR,Vpav,2020_Feb_14_1035,Pavlovian,3.2.4,60.00592329041204,
CBblue.png,s,yellow.png,4,1,2,6,2,2,2,10,3,,,,,,,,,,,,,547.4996762435194,None,0.009377195166052843,1.5019138913412462,111,4,117,4,549.016348419329,552.0163197415986,2.001910419826345,3.501909665149469,551.016322760307,None,551.9996585840754,None,,,,,,,,,,,,,,,,,,,,,,,,,,,,,,H,035,yes,KR,Vpav,2020_Feb_14_1035,Pavlovian,3.2.4,60.00592329041204,
CBblue.png,s,green.png,2,1,2,6,2,2,3,11,1,,,,,,,,,,,,,553.0162980068981,None,0.003642615107310121,1.4904190118259066,111,4,117,4,554.5995118748442,557.5996120959653,2.0070842446057213,3.507101300308932,556.5996157184154,None,557.5996120959653,None,,,,,,,,,,,,,,,,,,,,,,,,,,,,,,H,035,yes,KR,Vpav,2020_Feb_14_1035,Pavlovian,3.2.4,60.00592329041204,
CBblue.png,s,,,1,2,6,2,,,,,,,,,,,,,,,,,558.5829554665042,None,,,,,,,,,,,,,,,0.016466390454297652,1.0162257993915773,560.1662864603377,None,561.1662647256371,None,s,1,0.983294467462656,561.1662647256371,None,560.1662864603377,None,159,4,560.1662864603377,None,0.01244311621394445,None,119,4,562.3996039454523,None,,,,,,,H,035,yes,KR,Vpav,2020_Feb_14_1035,Pavlovian,3.2.4,60.00592329041204,
CByellow.png,k,blue.png,3,1,3,7,3,0,0,0,2,,,,,,,,,,,,,564.616265706718,None,0.009819677450650488,1.5028200472424942,111,4,117,4,566.249652018384,569.2495982853734,2.0028386122985466,3.502821254725859,568.2496003984697,None,569.2328963752861,None,,,,,,,,,,,,,,,,,,,,,,,,,,,,,,H,035,yes,KR,Vpav,2020_Feb_14_1035,Pavlovian,3.2.4,60.00592329041204,
CByellow.png,k,green.png,2,1,3,7,3,0,1,1,1,,,,,,,,,,,,,570.1329079973139,None,2.2579939468414523e-05,1.4998883983489577,111,4,117,4,571.7329149403431,574.7328657353955,1.9999093783726494,3.499880549707086,573.7328859607414,None,574.7162341612138,None,,,,,,,,,,,,,,,,,,,,,,,,,,,,,,H,035,yes,KR,Vpav,2020_Feb_14_1035,Pavlovian,3.2.4,60.00592329041204,
CByellow.png,k,yellow.png,4,1,3,7,3,0,2,2,3,,,,,,,,,,,,,575.6662368025845,None,0.008746345476538409,1.5007272974262378,111,4,117,4,577.1662224637194,580.1661750699968,2.000711751077688,3.500737561034839,579.1661968046974,None,580.1495760978669,None,,,,,,,,,,,,,,,,,,,,,,,,,,,,,,H,035,yes,KR,Vpav,2020_Feb_14_1035,Pavlovian,3.2.4,60.00592329041204,
CByellow.png,k,red.png,1,1,3,7,3,0,3,3,0,,,,,,,,,,,,,581.1661895597972,None,0.004132792984819389,1.4913976167299552,111,4,117,4,582.7328889794499,585.7328222659935,2.008057415834628,3.5080542461910227,584.7328388688902,None,585.7328222659935,None,,,,,,,,,,,,,,,,,,,,,,,,,,,,,,H,035,yes,KR,Vpav,2020_Feb_14_1035,Pavlovian,3.2.4,60.00592329041204,
CByellow.png,k,yellow.png,4,1,3,7,3,1,0,4,3,,,,,,,,,,,,,586.6495551178432,None,0.015970356283105502,1.5152698649881131,111,4,117,4,588.1661747681255,591.166139751108,2.015190925761999,3.515179907476522,590.166127374403,None,591.1495468163948,None,,,,,,,,,,,,,,,,,,,,,,,,,,,,,,H,035,yes,KR,Vpav,2020_Feb_14_1035,Pavlovian,3.2.4,60.00592329041204,
CByellow.png,k,green.png,2,1,3,7,3,1,1,5,1,,,,,,,,,,,,,592.166128280016,None,0.0057994219177999184,1.4947408363332215,111,4,117,4,593.7328210585101,596.7327839283962,2.0114262944607617,3.511416785529036,595.7327884564593,None,596.7327839283962,None,,,,,,,,,,,,,,,,,,,,,,,,,,,,,,H,035,yes,KR,Vpav,2020_Feb_14_1035,Pavlovian,3.2.4,60.00592329041204,
CByellow.png,k,blue.png,3,1,3,7,3,1,2,6,2,,,,,,,,,,,,,597.6494582173018,None,0.013520312134460255,1.5102563336276944,111,4,117,4,599.1828226433327,602.1827595523255,2.0102576920462525,3.510229768992758,601.1827619672922,None,602.1661325062078,None,,,,,,,,,,,,,,,,,,,,,,,,,,,,,,H,035,yes,KR,Vpav,2020_Feb_14_1035,Pavlovian,3.2.4,60.00592329041204,
CByellow.png,k,red.png,1,1,3,7,3,1,3,7,0,,,,,,,,,,,,,603.1327884564589,None,0.012552574580695364,1.5082051816125386,111,4,117,4,604.7327975125845,607.7327196299066,2.008201408227251,3.5081958236169157,606.7327274785484,None,607.7160512274822,None,,,,,,,,,,,,,,,,,,,,,,,,,,,,,,H,035,yes,KR,Vpav,2020_Feb_14_1035,Pavlovian,3.2.4,60.00592329041204,
CByellow.png,k,green.png,2,1,3,7,3,2,0,8,1,,,,,,,,,,,,,608.6493887870074,None,0.016015033167604997,1.5151907748268059,111,4,117,4,610.2327478548304,613.2327101209748,2.0151851902155613,3.515197717855699,612.2326977442699,None,613.216062547639,None,,,,,,,,,,,,,,,,,,,,,,,,,,,,,,H,035,yes,KR,Vpav,2020_Feb_14_1035,Pavlovian,3.2.4,60.00592329041204,
CByellow.png,k,yellow.png,4,1,3,7,3,2,1,9,3,,,,,,,,,,,,,614.1661035266061,None,0.009203015688399319,1.5015860596031416,111,4,117,4,615.6993801082208,618.6993595810036,2.0016245481356236,3.501567947352669,617.6993562604239,None,618.6827216675347,None,,,,,,,,,,,,,,,,,,,,,,,,,,,,,,H,035,yes,KR,Vpav,2020_Feb_14_1035,Pavlovian,3.2.4,60.00592329041204,
CByellow.png,k,red.png,1,1,3,7,3,2,2,10,0,,,,,,,,,,,,,619.6660556800771,None,0.014383783497578406,1.511919158987439,111,4,117,4,621.2327246107752,624.2326415962934,2.0119178005679714,3.511933045046135,623.2326521617724,None,624.2159774200609,None,,,,,,,,,,,,,,,,,,,,,,,,,,,,,,H,035,yes,KR,Vpav,2020_Feb_14_1035,Pavlovian,3.2.4,60.00592329041204,
CByellow.png,k,blue.png,3,1,3,7,3,2,3,11,2,,,,,,,,,,,,,625.1493225263575,None,0.0043038933790739975,1.4918244017299003,111,4,117,4,626.6993405631401,629.6993022255429,2.008453711879156,3.5084665413905896,628.6993046405096,None,629.6993022255429,None,,,,,,,,,,,,,,,,,,,,,,,,,,,,,,H,035,yes,KR,Vpav,2020_Feb_14_1035,Pavlovian,3.2.4,60.00592329041204,
CByellow.png,k,,,1,3,7,3,,,,,,,,,,,,,,,,,630.6992913581926,None,,,,,,,,,,,,,,,0.01648269148063264,1.0162716837603512,632.3159827028012,None,633.3159476857827,None,k,1,0.8508724822086151,633.3159476857827,None,632.3159827028012,None,159,4,632.3159827028012,None,0.012440097503713332,None,119,4,634.4326216728177,None,,,,,,,H,035,yes,KR,Vpav,2020_Feb_14_1035,Pavlovian,3.2.4,60.00592329041204,
CBred.png,b,yellow.png,4,2,0,8,0,0,0,0,3,,,,,,,,,,,,,636.6492701517654,None,0.008741998534787854,1.5006342004562612,111,4,117,4,638.2659442897357,641.265918026972,2.000628917717222,3.5006206162688613,640.2659198381971,None,641.249251737644,None,,,,,,,,,,,,,,,,,,,,,,,,,,,,,,H,035,yes,KR,Vpav,2020_Feb_14_1035,Pavlovian,3.2.4,60.00592329041204,
CBred.png,b,green.png,2,2,0,8,0,0,1,1,1,,,,,,,,,,,,,642.2159212720835,None,0.005093285637485678,1.4934137517257113,111,4,117,4,643.7993002633821,646.7992060796787,2.0100056298906566,3.510022685593867,645.7992275125089,None,646.7992060796787,None,,,,,,,,,,,,,,,,,,,,,,,,,,,,,,H,035,yes,KR,Vpav,2020_Feb_14_1035,Pavlovian,3.2.4,60.00592329041204,
CBred.png,b,red.png,1,2,0,8,0,0,2,2,0,,,,,,,,,,,,,647.6992632842039,None,0.00891237444102444,1.5009657753935244,111,4,117,4,649.2659017259466,652.2658993109799,2.000962303878623,3.5009633604267947,651.2659053483967,None,652.2492134000468,None,,,,,,,,,,,,,,,,,,,,,,,,,,,,,,H,035,yes,KR,Vpav,2020_Feb_14_1035,Pavlovian,3.2.4,60.00592329041204,
CBred.png,b,blue.png,3,2,0,8,0,0,3,3,2,,,,,,,,,,,,,653.1825732980142,None,0.0004680205565819051,1.50072113925944,111,4,117,4,654.7325702038388,657.7325059053483,2.0007436286377924,3.5007311009976547,656.7325131502485,None,657.7158459553084,None,,,,,,,,,,,,,,,,,,,,,,,,,,,,,,H,035,yes,KR,Vpav,2020_Feb_14_1035,Pavlovian,3.2.4,60.00592329041204,
CBred.png,b,yellow.png,4,2,0,8,0,1,0,4,3,,,,,,,,,,,,,658.665839540553,None,0.016577660047005338,1.516343861077985,111,4,117,4,660.2992518131123,663.2991923445552,1.9996822507482648,3.499677873620385,662.299196570747,None,663.2658247488816,None,,,,,,,,,,,,,,,,,,,,,,,,,,,,,,H,035,yes,KR,Vpav,2020_Feb_14_1035,Pavlovian,3.2.4,60.00592329041204,
CBred.png,b,green.png,2,2,0,8,0,1,1,5,1,,,,,,,,,,,,,664.1991876655575,None,0.016190963496228505,1.5154765861425403,111,4,117,4,665.7825234893253,668.7824501347104,2.015474322111004,3.515490472201236,667.7824540590309,None,668.7657747892563,None,,,,,,,,,,,,,,,,,,,,,,,,,,,,,,H,035,yes,KR,Vpav,2020_Feb_14_1035,Pavlovian,3.2.4,60.00592329041204,
CBred.png,b,blue.png,3,2,0,8,0,1,2,6,2,,,,,,,,,,,,,669.6824671904124,None,0.005487589333824872,1.494095738337819,111,4,117,4,671.1824655301234,674.1824154195629,2.0107488962839852,3.510744519157015,673.1824250794298,None,674.1824154195629,None,,,,,,,,,,,,,,,,,,,,,,,,,,,,,,H,035,yes,KR,Vpav,2020_Feb_14_1035,Pavlovian,3.2.4,60.00592329041204,
CBred.png,b,red.png,1,2,0,8,0,1,3,7,0,,,,,,,,,,,,,675.1657639219065,None,0.016452081776151317,1.5160386696543355,111,4,117,4,676.8491536296197,679.8490594459163,1.9993541171406832,None,678.849077860038,None,679.8157476963479,None,,,,,,,,,,,,,,,,,,,,,,,,,,,,,,H,035,yes,KR,Vpav,2020_Feb_14_1035,Pavlovian,3.2.4,60.00592329041204,
CBred.png,b,blue.png,3,2,0,8,0,2,0,8,2,,,,,,,,,,,,,680.6824034956644,None,0.01561807300640794,1.514390515217201,111,4,117,4,682.1991318194514,685.1990711434119,2.0144341355544384,3.51440017508412,684.1990961986912,None,685.1823722520321,None,,,,,,,,,,,,,,,,,,,,,,,,,,,,,,H,035,yes,KR,Vpav,2020_Feb_14_1035,Pavlovian,3.2.4,60.00592329041204,
CBred.png,b,yellow.png,4,2,0,8,0,2,1,9,3,,,,,,,,,,,,,686.1657159244414,None,0.0017775966553017497,1.503290422392638,111,4,117,4,687.7824172307883,690.7823571584895,2.0032944976492217,3.5032852905878826,689.7823628940359,None,690.7657177356668,None,,,,,,,,,,,,,,,,,,,,,,,,,,,,,,H,035,yes,KR,Vpav,2020_Feb_14_1035,Pavlovian,3.2.4,60.00592329041204,
CBred.png,b,red.png,1,2,0,8,0,2,2,10,0,,,,,,,,,,,,,691.6990897084688,None,0.016320828333846293,1.5157594994989267,111,4,117,4,693.2657432437536,696.2656659648173,1.9990879274309918,3.4990823428197473,695.2656726059759,None,696.2323315749354,None,,,,,,,,,,,,,,,,,,,,,,,,,,,,,,H,035,yes,KR,Vpav,2020_Feb_14_1035,Pavlovian,3.2.4,60.00592329041204,
CBred.png,b,green.png,2,2,0,8,0,2,3,11,1,,,,,,,,,,,,,697.1823372350145,None,0.003440361641878553,1.489977978522802,111,4,117,4,698.7656911710328,701.7656259669302,2.0066423056896383,3.506636117337621,700.7656280800265,None,701.7656259669302,None,,,,,,,,,,,,,,,,,,,,,,,,,,,,,,H,035,yes,KR,Vpav,2020_Feb_14_1035,Pavlovian,3.2.4,60.00592329041204,
CBred.png,b,,,2,0,8,0,,,,,,,,,,,,,,,,,702.7656380417639,None,,,,,,,,,,,,,,,0.01653219829859154,1.016367074947084,704.2822996520936,None,705.2822957277731,None,b,1,0.7618740142024762,705.2822957277731,None,704.2822996520936,None,159,4,704.2822996520936,None,0.009734127253977931,None,119,4,706.2989499422674,None,,,,,,,H,035,yes,KR,Vpav,2020_Feb_14_1035,Pavlovian,3.2.4,60.00592329041204,
CBblue.png,s,red.png,1,2,1,9,2,0,0,0,0,,,,,,,,,,,,,708.5156512486137,None,0.015399035522023041,1.5139272642190917,111,4,117,4,710.1822982936756,713.1822406363435,2.0139250001875553,3.5139393390527403,712.182250899953,None,713.1655852143658,None,,,,,,,,,,,,,,,,,,,,,,,,,,,,,,H,035,yes,KR,Vpav,2020_Feb_14_1035,Pavlovian,3.2.4,60.00592329041204,
CBblue.png,s,green.png,2,2,1,9,2,0,1,1,1,,,,,,,,,,,,,714.0489233021653,None,0.010175703924687696,1.5035310738294356,111,4,117,4,715.6322657670917,718.632228938849,2.003544808952938,3.503541639309333,717.6322364856196,None,718.6156082320185,None,,,,,,,,,,,,,,,,,,,,,,,,,,,,,,H,035,yes,KR,Vpav,2020_Feb_14_1035,Pavlovian,3.2.4,60.00592329041204,
CBblue.png,s,yellow.png,4,2,1,9,2,0,2,2,3,,,,,,,,,,,,,719.5488980959499,None,0.006779898420063546,1.4967588429290117,111,4,117,4,721.0655711773716,724.0655409902874,2.013423471967144,3.513413661165032,723.065547631446,None,724.0655409902874,None,,,,,,,,,,,,,,,,,,,,,,,,,,,,,,H,035,yes,KR,Vpav,2020_Feb_14_1035,Pavlovian,3.2.4,60.00592329041204,
CBblue.png,s,blue.png,3,2,1,9,2,0,3,3,2,,,,,,,,,,,,,725.0655418959004,None,0.0063252205536628026,1.4957481189667305,111,4,117,4,726.5989126612185,729.5988540982744,2.0124281434182194,3.512420445711541,728.598866173108,None,729.5988540982744,None,,,,,,,,,,,,,,,,,,,,,,,,,,,,,,H,035,yes,KR,Vpav,2020_Feb_14_1035,Pavlovian,3.2.4,60.00592329041204,
CBblue.png,s,blue.png,3,2,1,9,2,1,0,4,2,,,,,,,,,,,,,730.5322182224336,None,0.014746511505109083,1.512708732368992,111,4,117,4,732.1488781724738,735.1488060253423,2.0126928841491463,3.512704204305919,734.1488141758546,None,735.1321841110284,None,,,,,,,,,,,,,,,,,,,,,,,,,,,,,,H,035,yes,KR,Vpav,2020_Feb_14_1035,Pavlovian,3.2.4,60.00592329041204,
CBblue.png,s,red.png,1,2,1,9,2,1,1,5,0,,,,,,,,,,,,,736.0322111284686,None,0.013457040005050658,1.510077444964736,111,4,117,4,737.7155138973794,740.7154649943022,2.010051936878881,None,739.7154686167523,None,740.6988364388299,None,,,,,,,,,,,,,,,,,,,,,,,,,,,,,,H,035,yes,KR,Vpav,2020_Feb_14_1035,Pavlovian,3.2.4,60.00592329041204,
CBblue.png,s,yellow.png,4,2,1,9,2,1,2,6,3,,,,,,,,,,,,,741.548799082313,None,0.0008388387032027822,1.5014768427326999,111,4,117,4,743.0654685412846,746.0654462028424,2.001495709660958,3.5015106522669157,745.065444995359,None,746.0487747817097,None,,,,,,,,,,,,,,,,,,,,,,,,,,,,,,H,035,yes,KR,Vpav,2020_Feb_14_1035,Pavlovian,3.2.4,60.00592329041204,
CBblue.png,s,green.png,2,2,1,9,2,1,3,7,1,,,,,,,,,,,,,747.0654401654256,None,0.008581101375966682,1.500412023516219,111,4,117,4,748.6487799135139,751.6487557638466,2.0003536115073075,3.5003290090335213,750.6487611975217,None,751.6321247934075,None,,,,,,,,,,,,,,,,,,,,,,,,,,,,,,H,035,yes,KR,Vpav,2020_Feb_14_1035,Pavlovian,3.2.4,60.00592329041204,
CBblue.png,s,blue.png,3,2,1,9,2,2,0,8,2,,,,,,,,,,,,,752.5487737251615,None,0.00539425086844858,1.4939326677067584,111,4,117,4,754.0821130959121,757.0820421562639,2.010615107124977,3.5105820522676368,756.0820750601861,None,757.0820421562639,None,,,,,,,,,,,,,,,,,,,,,,,,,,,,,,H,035,yes,KR,Vpav,2020_Feb_14_1035,Pavlovian,3.2.4,60.00592329041204,
CBblue.png,s,green.png,2,2,1,9,2,2,1,9,1,,,,,,,,,,,,,758.0321552823625,None,0.013489340185515175,1.5101323854587463,111,4,117,4,759.7154106575499,762.7153689993738,2.0101352532310557,None,761.7153551133151,None,762.6987226335214,None,,,,,,,,,,,,,,,,,,,,,,,,,,,,,,H,035,yes,KR,Vpav,2020_Feb_14_1035,Pavlovian,3.2.4,60.00592329041204,
CBblue.png,s,red.png,1,2,1,9,2,2,2,10,0,,,,,,,,,,,,,763.5653639430375,None,0.014081610783250653,1.511331416453686,111,4,117,4,765.1487495754945,768.1487148603474,2.0113312655184927,3.5113256809081577,767.1487190865391,None,768.1320060072303,None,,,,,,,,,,,,,,,,,,,,,,,,,,,,,,H,035,yes,KR,Vpav,2020_Feb_14_1035,Pavlovian,3.2.4,60.00592329041204,
CBblue.png,s,yellow.png,4,2,1,9,2,2,3,11,3,,,,,,,,,,,,,769.0487113888321,None,0.006051785942872812,1.4953355218967772,111,4,117,4,770.5653488494945,773.5653132287352,2.011968152625741,3.511937814605517,772.5653385858859,None,773.5653132287352,None,,,,,,,,,,,,,,,,,,,,,,,,,,,,,,H,035,yes,KR,Vpav,2020_Feb_14_1035,Pavlovian,3.2.4,60.00592329041204,
CBblue.png,s,,,2,1,9,2,,,,,,,,,,,,,,,,,774.6487249730208,None,,,,,,,,,,,,,,,0.016478767159242125,1.0162248937795084,776.2653094553498,None,777.2652976823865,None,s,1,1.562174677564144,777.2652976823865,None,776.2653094553498,None,159,4,776.2653094553498,None,0.012719026163722447,None,119,4,779.0819621604896,None,,,,,,,H,035,yes,KR,Vpav,2020_Feb_14_1035,Pavlovian,3.2.4,60.00592329041204,
CBgreen.png,n,red.png,1,2,2,10,1,0,0,0,0,,,,,,,,,,,,,781.2986166768551,None,0.012788033839569835,1.5087144377275763,111,4,117,4,782.981973480646,785.9819091821564,2.008748700069191,None,784.9819312187283,None,785.965281532297,None,,,,,,,,,,,,,,,,,,,,,,,,,,,,,,H,035,yes,KR,Vpav,2020_Feb_14_1035,Pavlovian,3.2.4,60.00592329041204,
CBgreen.png,n,green.png,2,2,2,10,1,0,1,1,1,,,,,,,,,,,,,786.8319315960671,None,0.008353671880286129,1.499863705313146,111,4,117,4,788.3986092810192,791.3985724527765,1.999910344357886,3.499866724021558,790.3985730565182,None,791.3819393692411,None,,,,,,,,,,,,,,,,,,,,,,,,,,,,,,H,035,yes,KR,Vpav,2020_Feb_14_1035,Pavlovian,3.2.4,60.00592329041204,
CBgreen.png,n,yellow.png,4,2,2,10,1,0,2,2,3,,,,,,,,,,,,,792.3318852588918,None,0.01029337317959289,1.5037758307107651,111,4,117,4,793.848684522327,796.8486138845501,2.0037802078377354,3.503776736322834,795.8486147901622,None,796.8318787686694,None,,,,,,,,,,,,,,,,,,,,,,,,,,,,,,H,035,yes,KR,Vpav,2020_Feb_14_1035,Pavlovian,3.2.4,60.00592329041204,
CBgreen.png,n,blue.png,3,2,2,10,1,0,3,3,2,,,,,,,,,,,,,797.848622638804,None,0.01328092855419527,1.5097464737700648,111,4,117,4,799.3819725750336,802.3818521285666,2.0097423985143905,3.5097343989364163,801.3818663164966,None,802.3652247805776,None,,,,,,,,,,,,,,,,,,,,,,,,,,,,,,H,035,yes,KR,Vpav,2020_Feb_14_1035,Pavlovian,3.2.4,60.00592329041204,
CBgreen.png,n,red.png,1,2,2,10,1,1,0,4,0,,,,,,,,,,,,,803.3151839525462,None,0.01453260582547955,1.5121869184276875,111,4,117,4,804.9985350207917,807.9984770615893,2.0121822394294213,None,806.9985003056445,None,807.98181047039,None,,,,,,,,,,,,,,,,,,,,,,,,,,,,,,H,035,yes,KR,Vpav,2020_Feb_14_1035,Pavlovian,3.2.4,60.00592329041204,
CBgreen.png,n,yellow.png,4,2,2,10,1,1,1,5,3,,,,,,,,,,,,,808.8318250356588,None,0.004810493030163343,1.4927756571341888,111,4,117,4,810.3485053619806,813.3484824197967,2.009457794682021,3.5094446633002008,812.3484748730261,None,813.3484824197967,None,,,,,,,,,,,,,,,,,,,,,,,,,,,,,,H,035,yes,KR,Vpav,2020_Feb_14_1035,Pavlovian,3.2.4,60.00592329041204,
CBgreen.png,n,green.png,2,2,2,10,1,1,2,6,1,,,,,,,,,,,,,814.3484694393501,None,0.012786282989509345,1.5087383458994736,111,4,117,4,815.9316648931754,818.9318025462808,2.0087433267681263,3.5087350253197656,817.9317796040968,None,818.9151105979308,None,,,,,,,,,,,,,,,,,,,,,,,,,,,,,,H,035,yes,KR,Vpav,2020_Feb_14_1035,Pavlovian,3.2.4,60.00592329041204,
CBgreen.png,n,blue.png,3,2,2,10,1,1,3,7,2,,,,,,,,,,,,,819.8318250356588,None,0.003935007206564478,1.4910087467069388,111,4,117,4,821.3651203332656,824.3651079565607,2.00772046759721,3.5076895258353034,823.3651339174539,None,824.3651079565607,None,,,,,,,,,,,,,,,,,,,,,,,,,,,,,,H,035,yes,KR,Vpav,2020_Feb_14_1035,Pavlovian,3.2.4,60.00592329041204,
CBgreen.png,n,green.png,2,2,2,10,1,2,0,8,1,,,,,,,,,,,,,825.3150900707133,None,0.00204934078919905,1.5038773196883994,111,4,117,4,827.0151243330547,830.015067883206,2.003862678952828,None,829.0150712037857,None,829.9983931414945,None,,,,,,,,,,,,,,,,,,,,,,,,,,,,,,H,035,yes,KR,Vpav,2020_Feb_14_1035,Pavlovian,3.2.4,60.00592329041204,
CBgreen.png,n,yellow.png,4,2,2,10,1,2,1,9,3,,,,,,,,,,,,,830.8317223995718,None,0.005778894699687953,1.4947067249268002,111,4,117,4,832.3651749718883,835.3650216214992,2.0113677315157474,3.5113603356794556,834.3650252439493,None,835.3650216214992,None,,,,,,,,,,,,,,,,,,,,,,,,,,,,,,H,035,yes,KR,Vpav,2020_Feb_14_1035,Pavlovian,3.2.4,60.00592329041204,
CBgreen.png,n,blue.png,3,2,2,10,1,2,2,10,2,,,,,,,,,,,,,836.3483767650014,None,0.006544378787111782,1.496270959269168,111,4,117,4,837.8817909997206,840.8817034571757,2.0129706053257905,3.5129586814273353,839.8817257956189,None,840.8817034571757,None,,,,,,,,,,,,,,,,,,,,,,,,,,,,,,H,035,yes,KR,Vpav,2020_Feb_14_1035,Pavlovian,3.2.4,60.00592329041204,
CBgreen.png,n,red.png,1,2,2,10,1,2,3,11,0,,,,,,,,,,,,,841.8150075090371,None,0.00173883643856243,1.5033651656140137,111,4,117,4,843.4817499452856,846.4816744775753,2.003344185590322,None,845.4816959104046,None,846.4649728693576,None,,,,,,,,,,,,,,,,,,,,,,,,,,,,,,H,035,yes,KR,Vpav,2020_Feb_14_1035,Pavlovian,3.2.4,60.00592329041204,
CBgreen.png,n,,,2,2,10,1,,,,,,,,,,,,,,,,,847.4316342532848,None,,,,,,,,,,,,,,,0.016475144710057066,1.0162336480343583,848.9316516108584,None,849.9316368191867,None,n,1,0.816193559585372,849.9316368191867,None,848.9316516108584,None,159,4,848.9316516108584,None,0.012096568482775183,None,119,4,850.9983164662999,None,,,,,,,H,035,yes,KR,Vpav,2020_Feb_14_1035,Pavlovian,3.2.4,60.00592329041204,
CByellow.png,k,blue.png,3,2,3,11,3,0,0,0,2,,,,,,,,,,,,,853.2149558891233,None,0.006613748707422928,1.4963979865215151,111,4,117,4,854.8483077875135,857.8482697517866,2.0130686529764716,3.5130515972741705,856.8482857509416,None,857.8482697517866,None,,,,,,,,,,,,,,,,,,,,,,,,,,,,,,H,035,yes,KR,Vpav,2020_Feb_14_1035,Pavlovian,3.2.4,60.00592329041204,
CByellow.png,k,yellow.png,4,2,3,11,3,0,1,1,3,,,,,,,,,,,,,858.7316159900984,None,0.013149554362826166,1.5094400144898827,111,4,117,4,860.3816441395547,863.3816218011125,2.0094250718830153,3.5094442406816597,862.3816079150538,None,863.3649177779289,None,,,,,,,,,,,,,,,,,,,,,,,,,,,,,,H,035,yes,KR,Vpav,2020_Feb_14_1035,Pavlovian,3.2.4,60.00592329041204,
CByellow.png,k,green.png,2,2,3,11,3,0,2,2,1,,,,,,,,,,,,,864.2649484178191,None,0.016648358199745417,1.516414257359429,111,4,117,4,865.8649722656164,868.8648841193299,1.9997348366496226,3.4997132528842485,867.8648940810672,None,868.831552446286,None,,,,,,,,,,,,,,,,,,,,,,,,,,,,,,H,035,yes,KR,Vpav,2020_Feb_14_1035,Pavlovian,3.2.4,60.00592329041204,
CByellow.png,k,red.png,1,2,3,11,3,0,3,3,0,,,,,,,,,,,,,869.7648770253645,None,0.013440678605547873,1.5100426694434645,111,4,117,4,871.364935588309,874.3648598187265,2.010021991291069,3.5100342170599106,873.3648483476345,None,874.3482004724283,None,,,,,,,,,,,,,,,,,,,,,,,,,,,,,,H,035,yes,KR,Vpav,2020_Feb_14_1035,Pavlovian,3.2.4,60.00592329041204,
CByellow.png,k,yellow.png,4,2,3,11,3,1,0,4,3,,,,,,,,,,,,,875.2481915672379,None,0.012895197988655127,1.5089791784575937,111,4,117,4,876.7815505595936,879.781500449033,2.008999554739603,3.5089803859409585,878.7814865629744,None,879.7648501588601,None,,,,,,,,,,,,,,,,,,,,,,,,,,,,,,H,035,yes,KR,Vpav,2020_Feb_14_1035,Pavlovian,3.2.4,60.00592329041204,
CByellow.png,k,blue.png,3,2,3,11,3,1,1,5,2,,,,,,,,,,,,,880.7648169530667,None,0.005242349459877005,1.493620472879229,111,4,117,4,882.2982088493436,885.2981828884513,2.0103098553272503,3.5103018557501855,884.2981895296098,None,885.2981828884513,None,,,,,,,,,,,,,,,,,,,,,,,,,,,,,,H,035,yes,KR,Vpav,2020_Feb_14_1035,Pavlovian,3.2.4,60.00592329041204,
CByellow.png,k,red.png,1,2,3,11,3,1,2,6,0,,,,,,,,,,,,,886.2147980106711,None,0.00656170617457974,1.4963667730771704,111,4,117,4,887.8815111654476,890.8814519987627,2.012928766028381,None,889.8814405276707,None,890.8814519987627,None,,,,,,,,,,,,,,,,,,,,,,,,,,,,,,H,035,yes,KR,Vpav,2020_Feb_14_1035,Pavlovian,3.2.4,60.00592329041204,
CByellow.png,k,green.png,2,2,3,11,3,1,3,7,1,,,,,,,,,,,,,891.7481159485915,None,0.004657142641917744,1.4924647301659206,111,4,117,4,893.3314819594434,896.331465658418,2.009142943392362,3.5091261895604475,895.3314375844293,None,896.331465658418,None,,,,,,,,,,,,,,,,,,,,,,,,,,,,,,H,035,yes,KR,Vpav,2020_Feb_14_1035,Pavlovian,3.2.4,60.00592329041204,
CByellow.png,k,yellow.png,4,2,3,11,3,2,0,8,3,,,,,,,,,,,,,897.3147875961267,None,0.011751047113648383,1.5066918426937264,111,4,117,4,898.8480967797932,901.8480575365829,2.006658787836386,3.506681579085125,900.8480668945795,None,901.8313852098381,None,,,,,,,,,,,,,,,,,,,,,,,,,,,,,,H,035,yes,KR,Vpav,2020_Feb_14_1035,Pavlovian,3.2.4,60.00592329041204,
CByellow.png,k,red.png,1,2,3,11,3,2,1,9,0,,,,,,,,,,,,,902.7647589938642,None,0.002547488056734437,1.5048859305543374,111,4,117,4,904.3481156467205,907.3480468201678,2.004879138459728,3.504888345521067,906.3480410846223,None,907.3313741915526,None,,,,,,,,,,,,,,,,,,,,,,,,,,,,,,H,035,yes,KR,Vpav,2020_Feb_14_1035,Pavlovian,3.2.4,60.00592329041204,
CByellow.png,k,green.png,2,2,3,11,3,2,2,10,1,,,,,,,,,,,,,908.2480415374284,None,0.00783378991400241,1.4987696649995996,111,4,117,4,909.8314271698855,912.8313520040456,2.0153956545700566,3.5153882587346743,911.831354117141,None,912.8313520040456,None,,,,,,,,,,,,,,,,,,,,,,,,,,,,,,H,035,yes,KR,Vpav,2020_Feb_14_1035,Pavlovian,3.2.4,60.00592329041204,
CByellow.png,k,blue.png,3,2,3,11,3,2,3,11,2,,,,,,,,,,,,,913.7479979170912,None,0.0013269034843688132,1.5025007282629304,111,4,117,4,915.2813973601396,918.2813158550116,2.0024951436525953,3.5024771823373158,917.2813593244136,None,918.2646731116092,None,,,,,,,,,,,,,,,,,,,,,,,,,,,,,,H,035,yes,KR,Vpav,2020_Feb_14_1035,Pavlovian,3.2.4,60.00592329041204,
CByellow.png,k,,,2,3,11,3,,,,,,,,,,,,,,,,,919.3313207604124,None,,,,,,,,,,,,,,,0.01646940916270978,1.0161744813476616,920.9479834272906,None,921.9478225301309,None,k,1,0.5893424498335662,921.9478225301309,None,920.9479834272906,None,159,4,920.9479834272906,None,0.012122710499170353,None,119,4,922.8312910261347,None,,,,,,,H,035,yes,KR,Vpav,2020_Feb_14_1035,Pavlovian,3.2.4,60.00592329041204,
,,,,,,,,,,,,,,,,,,,,,,,,,,,,,,,,,,,,,,,,,,,,,,,,,,,,,,,,,,,,,,,924.9646572633901,None,926.7312751779154,None,950.6645191574789,None,,,,,,,,,,
