tests.thisRepN,tests.thisTrialN,tests.thisN,tests.thisIndex,trials.thisRepN,trials.thisTrialN,trials.thisN,trials.thisIndex,repA.thisRepN,repA.thisTrialN,repA.thisN,repA.thisIndex,repB.thisRepN,repB.thisTrialN,repB.thisN,repB.thisIndex,slider.response,slider.rt,slider.started,slider.stopped,text.started,text.stopped,text_5.started,text_5.stopped,key_resp.keys,key_resp.rt,key_resp.started,key_resp.stopped,text_6.started,text_6.stopped,key_resp_2.keys,key_resp_2.rt,key_resp_2.started,key_resp_2.stopped,p_port_2.started,p_port_2.stopped,Instructions_text.started,Instructions_text.stopped,p_port_2_start,p_port_2_end,image.started,image.stopped,text_7.started,text_7.stopped,key_resp_4.keys,key_resp_4.rt,key_resp_4.started,key_resp_4.stopped,vending_machine.started,vending_machine.stopped,p_port_3.started,p_port_3.stopped,p_port_3_start,p_port_3_end,vendingB_image.started,vendingB_image.stopped,rewardB_image.started,rewardB_image.stopped,text_3.started,text_3.stopped,p_port.started,p_port.stopped,p_port_start,p_port_end,vendingA_image.started,vendingA_image.stopped,rewardA_image.started,rewardA_image.stopped,text_2.started,text_2.stopped,test_question.started,test_question.stopped,test_instructions.started,test_instructions.stopped,test_image.started,test_image.stopped,test_response.keys,test_response.corr,test_response.rt,test_response.started,test_response.stopped,p_port_5.started,p_port_5.stopped,p_port_5_start,p_port_5_end,feedback_text.started,feedback_text.stopped,text_4.started,text_4.stopped,finish_text.started,finish_text.stopped,key_resp_3.keys,key_resp_3.rt,key_resp_3.started,key_resp_3.stopped,version,sequence #,participant,participant initials,phase,date,expName,psychopyVersion,frameRate,
,,,,,,,,,,,,,,,,3.015625,6.83918464684848,314.96161380153535,None,314.96161380153535,None,321.7948844966677,None,space,3.7596265857655453,322.77821609424427,None,,,,,,,,,,,,,,,,,,,,,,,,,,,,,,,,,,,,,,,,,,,,,,,,,,,,,,,,,,,,,,,,,,,,H,1,035,KR,VIns,2020_Feb_14_1021,Instrumental,3.2.4,59.9860387039167,
,,,,,,,,,,,,,,,,,,,,,,,,,,,,326.5615277683446,None,space,2.976898729878485,327.54486057340364,None,,,,,,,,,,,,,,,,,,,,,,,,,,,,,,,,,,,,,,,,,,,,,,,,,,,,,,,,,,,,,,H,1,035,KR,VIns,2020_Feb_14_1021,Instrumental,3.2.4,59.9860387039167,
,,,,,,,,,,,,,,,,,,,,,,,,,,,,,,,,,,0.01537316519079468,1.0140868935222898,330.5448515172784,None,158,4,330.5448515172784,None,334.1448572528243,None,q,21.542766193484567,334.1448572528243,None,,,,,,,,,,,,,,,,,,,,,,,,,,,,,,,,,,,,,,,,,,,,,,,,H,1,035,KR,VIns,2020_Feb_14_1021,Instrumental,3.2.4,59.9860387039167,
0,0,0,0,0,0,0,0,,,,,0,0,0,0,,,,,,,,,,,,,,,,,,,,,,,,,,,,,,,,,355.8280649324188,None,0.015093934659489605,None,103,4,359.29472012799306,None,359.29472012799306,None,360.27811059038413,None,,,,,,,,,,,,,,,,,,,,,,,,,,,,,,,,,,,,H,1,035,KR,VIns,2020_Feb_14_1021,Instrumental,3.2.4,59.9860387039167,
0,0,0,0,0,0,0,0,,,,,,,,,,,,,,,,,,,,,,,,,,,,,,,,,,,,,,,,,,,,,,,,,,,,,,,,,,,,,,,,,,,,,,,,,,,,,,,,,,,,,,,,H,1,035,KR,VIns,2020_Feb_14_1021,Instrumental,3.2.4,59.9860387039167,
0,0,0,0,1,0,1,0,0,0,0,0,,,,,,,,,,,,,,,,,,,,,,,,,,,,,,,,,,,,,361.36119842725293,None,,,,,,,,,,,0.015028126816105214,None,101,4,365.2780665172404,None,365.2780665172404,None,366.2613637015402,None,,,,,,,,,,,,,,,,,,,,,,,,,,H,1,035,KR,VIns,2020_Feb_14_1021,Instrumental,3.2.4,59.9860387039167,
0,0,0,0,1,0,1,0,,,,,,,,,,,,,,,,,,,,,,,,,,,,,,,,,,,,,,,,,,,,,,,,,,,,,,,,,,,,,,,,,,,,,,,,,,,,,,,,,,,,,,,,H,1,035,KR,VIns,2020_Feb_14_1021,Instrumental,3.2.4,59.9860387039167,
0,0,0,0,2,0,2,0,,,,,0,0,0,0,,,,,,,,,,,,,,,,,,,,,,,,,,,,,,,,,367.3447265427485,None,0.015022693140053889,None,103,4,369.6946694136914,None,369.6946694136914,None,370.6780345189309,None,,,,,,,,,,,,,,,,,,,,,,,,,,,,,,,,,,,,H,1,035,KR,VIns,2020_Feb_14_1021,Instrumental,3.2.4,59.9860387039167,
0,0,0,0,2,0,2,0,,,,,,,,,,,,,,,,,,,,,,,,,,,,,,,,,,,,,,,,,,,,,,,,,,,,,,,,,,,,,,,,,,,,,,,,,,,,,,,,,,,,,,,,H,1,035,KR,VIns,2020_Feb_14_1021,Instrumental,3.2.4,59.9860387039167,
0,0,0,0,3,0,3,0,0,0,0,0,,,,,,,,,,,,,,,,,,,,,,,,,,,,,,,,,,,,,371.7780159538743,None,,,,,,,,,,,0.015009712693426991,None,101,4,373.34473891945345,None,373.34473891945345,None,374.3279669753292,None,,,,,,,,,,,,,,,,,,,,,,,,,,H,1,035,KR,VIns,2020_Feb_14_1021,Instrumental,3.2.4,59.9860387039167,
0,0,0,0,3,0,3,0,,,,,,,,,,,,,,,,,,,,,,,,,,,,,,,,,,,,,,,,,,,,,,,,,,,,,,,,,,,,,,,,,,,,,,,,,,,,,,,,,,,,,,,,H,1,035,KR,VIns,2020_Feb_14_1021,Instrumental,3.2.4,59.9860387039167,
0,0,0,0,,,,,,,,,,,,,,,,,,,,,,,,,,,,,,,,,,,,,,,,,,,,,,,,,,,,,,,,,,,,,,,,,,,375.6446303968851,None,375.6446303968851,None,376.14462511414513,None,b,1,3.0917234561193254,376.14462511414513,None,0.00318887304092641,None,109,4,379.6946679043367,None,,,,,,,,,H,1,035,KR,VIns,2020_Feb_14_1021,Instrumental,3.2.4,59.9860387039167,
1,0,1,0,0,0,0,0,,,,,0,0,0,0,,,,,,,,,,,,,,,,,,,,,,,,,,,,,,,,,381.82795625891504,None,0.015538892284894246,None,103,4,385.4446083603134,None,385.4446083603134,None,386.4279275811841,None,,,,,,,,,,,,,,,,,,,,,,,,,,,,,,,,,,,,H,1,035,KR,VIns,2020_Feb_14_1021,Instrumental,3.2.4,59.9860387039167,
1,0,1,0,0,0,0,0,,,,,,,,,,,,,,,,,,,,,,,,,,,,,,,,,,,,,,,,,,,,,,,,,,,,,,,,,,,,,,,,,,,,,,,,,,,,,,,,,,,,,,,,H,1,035,KR,VIns,2020_Feb_14_1021,Instrumental,3.2.4,59.9860387039167,
1,0,1,0,1,0,1,0,0,0,0,0,,,,,,,,,,,,,,,,,,,,,,,,,,,,,,,,,,,,,387.51126929143356,None,,,,,,,,,,,0.015036579198749678,None,101,4,390.4112519338605,None,390.4112519338605,None,391.39459439878647,None,,,,,,,,,,,,,,,,,,,,,,,,,,H,1,035,KR,VIns,2020_Feb_14_1021,Instrumental,3.2.4,59.9860387039167,
1,0,1,0,1,0,1,0,,,,,,,,,,,,,,,,,,,,,,,,,,,,,,,,,,,,,,,,,,,,,,,,,,,,,,,,,,,,,,,,,,,,,,,,,,,,,,,,,,,,,,,,H,1,035,KR,VIns,2020_Feb_14_1021,Instrumental,3.2.4,59.9860387039167,
1,0,1,0,2,0,2,0,,,,,0,0,0,0,,,,,,,,,,,,,,,,,,,,,,,,,,,,,,,,,392.47791105375563,None,0.01549813972087577,None,103,4,394.9278933188434,None,394.9278933188434,None,395.9112182752606,None,,,,,,,,,,,,,,,,,,,,,,,,,,,,,,,,,,,,H,1,035,KR,VIns,2020_Feb_14_1021,Instrumental,3.2.4,59.9860387039167,
1,0,1,0,2,0,2,0,,,,,,,,,,,,,,,,,,,,,,,,,,,,,,,,,,,,,,,,,,,,,,,,,,,,,,,,,,,,,,,,,,,,,,,,,,,,,,,,,,,,,,,,H,1,035,KR,VIns,2020_Feb_14_1021,Instrumental,3.2.4,59.9860387039167,
1,0,1,0,3,0,3,0,,,,,0,0,0,0,,,,,,,,,,,,,,,,,,,,,,,,,,,,,,,,,397.01122174677585,None,0.015100877690201742,None,103,4,400.2778672824834,None,400.2778672824834,None,401.26128581886223,None,,,,,,,,,,,,,,,,,,,,,,,,,,,,,,,,,,,,H,1,035,KR,VIns,2020_Feb_14_1021,Instrumental,3.2.4,59.9860387039167,
1,0,1,0,3,0,3,0,,,,,,,,,,,,,,,,,,,,,,,,,,,,,,,,,,,,,,,,,,,,,,,,,,,,,,,,,,,,,,,,,,,,,,,,,,,,,,,,,,,,,,,,H,1,035,KR,VIns,2020_Feb_14_1021,Instrumental,3.2.4,59.9860387039167,
1,0,1,0,,,,,,,,,,,,,,,,,,,,,,,,,,,,,,,,,,,,,,,,,,,,,,,,,,,,,,,,,,,,,,,,,,,402.52783928396275,None,402.52783928396275,None,403.0445244402181,None,n,1,1.291621423773904,403.0445244402181,None,0.006185484539855679,None,109,4,407.67787664047955,None,,,,,,,,,H,1,035,KR,VIns,2020_Feb_14_1021,Instrumental,3.2.4,59.9860387039167,
2,0,2,0,0,0,0,0,,,,,0,0,0,0,,,,,,,,,,,,,,,,,,,,,,,,,,,,,,,,,409.7278235866788,None,0.015011523918474268,None,103,4,413.2778497739746,None,413.2778497739746,None,414.26114001524456,None,,,,,,,,,,,,,,,,,,,,,,,,,,,,,,,,,,,,H,1,035,KR,VIns,2020_Feb_14_1021,Instrumental,3.2.4,59.9860387039167,
2,0,2,0,0,0,0,0,,,,,,,,,,,,,,,,,,,,,,,,,,,,,,,,,,,,,,,,,,,,,,,,,,,,,,,,,,,,,,,,,,,,,,,,,,,,,,,,,,,,,,,,H,1,035,KR,VIns,2020_Feb_14_1021,Instrumental,3.2.4,59.9860387039167,
2,0,2,0,1,0,1,0,0,0,0,0,,,,,,,,,,,,,,,,,,,,,,,,,,,,,,,,,,,,,415.37788433818605,None,,,,,,,,,,,0.01509967020683689,None,101,4,418.2779013938889,None,418.2779013938889,None,419.2611225067358,None,,,,,,,,,,,,,,,,,,,,,,,,,,H,1,035,KR,VIns,2020_Feb_14_1021,Instrumental,3.2.4,59.9860387039167,
2,0,2,0,1,0,1,0,,,,,,,,,,,,,,,,,,,,,,,,,,,,,,,,,,,,,,,,,,,,,,,,,,,,,,,,,,,,,,,,,,,,,,,,,,,,,,,,,,,,,,,,H,1,035,KR,VIns,2020_Feb_14_1021,Instrumental,3.2.4,59.9860387039167,
2,0,2,0,2,0,2,0,0,0,0,0,,,,,,,,,,,,,,,,,,,,,,,,,,,,,,,,,,,,,420.3778339257551,None,,,,,,,,,,,0.015361694098828593,None,101,4,422.977839661301,None,422.977839661301,None,423.96111028096584,None,,,,,,,,,,,,,,,,,,,,,,,,,,H,1,035,KR,VIns,2020_Feb_14_1021,Instrumental,3.2.4,59.9860387039167,
2,0,2,0,2,0,2,0,,,,,,,,,,,,,,,,,,,,,,,,,,,,,,,,,,,,,,,,,,,,,,,,,,,,,,,,,,,,,,,,,,,,,,,,,,,,,,,,,,,,,,,,H,1,035,KR,VIns,2020_Feb_14_1021,Instrumental,3.2.4,59.9860387039167,
2,0,2,0,3,0,3,0,0,0,0,0,,,,,,,,,,,,,,,,,,,,,,,,,,,,,,,,,,,,,425.0778216999861,None,,,,,,,,,,,0.01509936833554093,None,101,4,428.52774570400015,None,428.52774570400015,None,429.51112831774935,None,,,,,,,,,,,,,,,,,,,,,,,,,,H,1,035,KR,VIns,2020_Feb_14_1021,Instrumental,3.2.4,59.9860387039167,
2,0,2,0,3,0,3,0,,,,,,,,,,,,,,,,,,,,,,,,,,,,,,,,,,,,,,,,,,,,,,,,,,,,,,,,,,,,,,,,,,,,,,,,,,,,,,,,,,,,,,,,H,1,035,KR,VIns,2020_Feb_14_1021,Instrumental,3.2.4,59.9860387039167,
2,0,2,0,,,,,,,,,,,,,,,,,,,,,,,,,,,,,,,,,,,,,,,,,,,,,,,,,,,,,,,,,,,,,,,,,,,430.86106666062915,None,430.86106666062915,None,431.36106620782266,None,b,1,1.0037664425281037,431.36106620782266,None,0.00799791709141573,None,109,4,432.81105843464866,None,,,,,,,,,H,1,035,KR,VIns,2020_Feb_14_1021,Instrumental,3.2.4,59.9860387039167,
3,0,3,0,0,0,0,0,,,,,0,0,0,0,,,,,,,,,,,,,,,,,,,,,,,,,,,,,,,,,434.8943826363893,None,0.015531647384705138,None,103,4,438.3610574535687,None,438.3610574535687,None,439.3443639958641,None,,,,,,,,,,,,,,,,,,,,,,,,,,,,,,,,,,,,H,1,035,KR,VIns,2020_Feb_14_1021,Instrumental,3.2.4,59.9860387039167,
3,0,3,0,0,0,0,0,,,,,,,,,,,,,,,,,,,,,,,,,,,,,,,,,,,,,,,,,,,,,,,,,,,,,,,,,,,,,,,,,,,,,,,,,,,,,,,,,,,,,,,,H,1,035,KR,VIns,2020_Feb_14_1021,Instrumental,3.2.4,59.9860387039167,
3,0,3,0,1,0,1,0,,,,,0,0,0,0,,,,,,,,,,,,,,,,,,,,,,,,,,,,,,,,,440.4610464352827,None,0.015101179559678712,None,103,4,443.6110083240883,None,443.6110083240883,None,444.5943767499075,None,,,,,,,,,,,,,,,,,,,,,,,,,,,,,,,,,,,,H,1,035,KR,VIns,2020_Feb_14_1021,Instrumental,3.2.4,59.9860387039167,
3,0,3,0,1,0,1,0,,,,,,,,,,,,,,,,,,,,,,,,,,,,,,,,,,,,,,,,,,,,,,,,,,,,,,,,,,,,,,,,,,,,,,,,,,,,,,,,,,,,,,,,H,1,035,KR,VIns,2020_Feb_14_1021,Instrumental,3.2.4,59.9860387039167,
3,0,3,0,2,0,2,0,0,0,0,0,,,,,,,,,,,,,,,,,,,,,,,,,,,,,,,,,,,,,445.7110099843785,None,,,,,,,,,,,0.015012731402748614,None,101,4,452.7276835186067,None,452.7276835186067,None,453.71096742058944,None,,,,,,,,,,,,,,,,,,,,,,,,,,H,1,035,KR,VIns,2020_Feb_14_1021,Instrumental,3.2.4,59.9860387039167,
3,0,3,0,2,0,2,0,,,,,,,,,,,,,,,,,,,,,,,,,,,,,,,,,,,,,,,,,,,,,,,,,,,,,,,,,,,,,,,,,,,,,,,,,,,,,,,,,,,,,,,,H,1,035,KR,VIns,2020_Feb_14_1021,Instrumental,3.2.4,59.9860387039167,
3,0,3,0,3,0,3,0,0,0,0,0,,,,,,,,,,,,,,,,,,,,,,,,,,,,,,,,,,,,,454.84433245036143,None,,,,,,,,,,,0.015020278174233681,None,101,4,457.47761431471554,None,457.47761431471554,None,458.46094138422905,None,,,,,,,,,,,,,,,,,,,,,,,,,,H,1,035,KR,VIns,2020_Feb_14_1021,Instrumental,3.2.4,59.9860387039167,
3,0,3,0,3,0,3,0,,,,,,,,,,,,,,,,,,,,,,,,,,,,,,,,,,,,,,,,,,,,,,,,,,,,,,,,,,,,,,,,,,,,,,,,,,,,,,,,,,,,,,,,H,1,035,KR,VIns,2020_Feb_14_1021,Instrumental,3.2.4,59.9860387039167,
3,0,3,0,,,,,,,,,,,,,,,,,,,,,,,,,,,,,,,,,,,,,,,,,,,,,,,,,,,,,,,,,,,,,,,,,,,459.81093798818165,None,459.81093798818165,None,460.31092787550824,None,b,1,0.7986687495758815,460.31092787550824,None,0.00857690537122835,None,109,4,461.4276254084689,None,,,,,,,,,H,1,035,KR,VIns,2020_Feb_14_1021,Instrumental,3.2.4,59.9860387039167,
4,0,4,0,0,0,0,0,0,0,0,0,,,,,,,,,,,,,,,,,,,,,,,,,,,,,,,,,,,,,463.5442649822271,None,,,,,,,,,,,0.01501846694827691,None,101,4,466.0442346442078,None,466.0442346442078,None,467.02755356320813,None,,,,,,,,,,,,,,,,,,,,,,,,,,H,1,035,KR,VIns,2020_Feb_14_1021,Instrumental,3.2.4,59.9860387039167,
4,0,4,0,0,0,0,0,,,,,,,,,,,,,,,,,,,,,,,,,,,,,,,,,,,,,,,,,,,,,,,,,,,,,,,,,,,,,,,,,,,,,,,,,,,,,,,,,,,,,,,,H,1,035,KR,VIns,2020_Feb_14_1021,Instrumental,3.2.4,59.9860387039167,
4,0,4,0,1,0,1,0,0,0,0,0,,,,,,,,,,,,,,,,,,,,,,,,,,,,,,,,,,,,,468.1609182911088,None,,,,,,,,,,,0.015410899046401028,None,101,4,470.7108762555936,None,470.7108762555936,None,471.6942920751353,None,,,,,,,,,,,,,,,,,,,,,,,,,,H,1,035,KR,VIns,2020_Feb_14_1021,Instrumental,3.2.4,59.9860387039167,
4,0,4,0,1,0,1,0,,,,,,,,,,,,,,,,,,,,,,,,,,,,,,,,,,,,,,,,,,,,,,,,,,,,,,,,,,,,,,,,,,,,,,,,,,,,,,,,,,,,,,,,H,1,035,KR,VIns,2020_Feb_14_1021,Instrumental,3.2.4,59.9860387039167,
4,0,4,0,2,0,2,0,0,0,0,0,,,,,,,,,,,,,,,,,,,,,,,,,,,,,,,,,,,,,472.8275511482416,None,,,,,,,,,,,0.015023296882645809,None,101,4,477.32752443267145,None,477.32752443267145,None,478.31089980151955,None,,,,,,,,,,,,,,,,,,,,,,,,,,H,1,035,KR,VIns,2020_Feb_14_1021,Instrumental,3.2.4,59.9860387039167,
4,0,4,0,2,0,2,0,,,,,,,,,,,,,,,,,,,,,,,,,,,,,,,,,,,,,,,,,,,,,,,,,,,,,,,,,,,,,,,,,,,,,,,,,,,,,,,,,,,,,,,,H,1,035,KR,VIns,2020_Feb_14_1021,Instrumental,3.2.4,59.9860387039167,
4,0,4,0,3,0,3,0,,,,,0,0,0,0,,,,,,,,,,,,,,,,,,,,,,,,,,,,,,,,,479.44419238228966,None,0.015068577507918235,None,103,4,484.42750224516476,None,484.42750224516476,None,485.4108619167291,None,,,,,,,,,,,,,,,,,,,,,,,,,,,,,,,,,,,,H,1,035,KR,VIns,2020_Feb_14_1021,Instrumental,3.2.4,59.9860387039167,
4,0,4,0,3,0,3,0,,,,,,,,,,,,,,,,,,,,,,,,,,,,,,,,,,,,,,,,,,,,,,,,,,,,,,,,,,,,,,,,,,,,,,,,,,,,,,,,,,,,,,,,H,1,035,KR,VIns,2020_Feb_14_1021,Instrumental,3.2.4,59.9860387039167,
4,0,4,0,,,,,,,,,,,,,,,,,,,,,,,,,,,,,,,,,,,,,,,,,,,,,,,,,,,,,,,,,,,,,,,,,,,486.76082048495573,None,486.76082048495573,None,487.2608106741527,None,n,1,0.6435358132021065,487.2608106741527,None,0.008730859501156374,None,109,4,491.31083399367617,None,,,,,,,,,H,1,035,KR,VIns,2020_Feb_14_1021,Instrumental,3.2.4,59.9860387039167,
5,0,5,0,0,0,0,0,,,,,0,0,0,0,,,,,,,,,,,,,,,,,,,,,,,,,,,,,,,,,493.39412166904367,None,0.015481536825063813,None,103,4,496.6774365127876,None,496.6774365127876,None,497.6607506018554,None,,,,,,,,,,,,,,,,,,,,,,,,,,,,,,,,,,,,H,1,035,KR,VIns,2020_Feb_14_1021,Instrumental,3.2.4,59.9860387039167,
5,0,5,0,0,0,0,0,,,,,,,,,,,,,,,,,,,,,,,,,,,,,,,,,,,,,,,,,,,,,,,,,,,,,,,,,,,,,,,,,,,,,,,,,,,,,,,,,,,,,,,,H,1,035,KR,VIns,2020_Feb_14_1021,Instrumental,3.2.4,59.9860387039167,
5,0,5,0,1,0,1,0,,,,,0,0,0,0,,,,,,,,,,,,,,,,,,,,,,,,,,,,,,,,,498.8109286301851,None,0.014982242446421878,None,103,4,502.1940676341628,None,502.1940676341628,None,503.1773922887096,None,,,,,,,,,,,,,,,,,,,,,,,,,,,,,,,,,,,,H,1,035,KR,VIns,2020_Feb_14_1021,Instrumental,3.2.4,59.9860387039167,
5,0,5,0,1,0,1,0,,,,,,,,,,,,,,,,,,,,,,,,,,,,,,,,,,,,,,,,,,,,,,,,,,,,,,,,,,,,,,,,,,,,,,,,,,,,,,,,,,,,,,,,H,1,035,KR,VIns,2020_Feb_14_1021,Instrumental,3.2.4,59.9860387039167,
5,0,5,0,2,0,2,0,0,0,0,0,,,,,,,,,,,,,,,,,,,,,,,,,,,,,,,,,,,,,504.3274091180092,None,,,,,,,,,,,0.01501333514443104,None,101,4,509.12741002362145,None,509.12741002362145,None,510.1106939256042,None,,,,,,,,,,,,,,,,,,,,,,,,,,H,1,035,KR,VIns,2020_Feb_14_1021,Instrumental,3.2.4,59.9860387039167,
5,0,5,0,2,0,2,0,,,,,,,,,,,,,,,,,,,,,,,,,,,,,,,,,,,,,,,,,,,,,,,,,,,,,,,,,,,,,,,,,,,,,,,,,,,,,,,,,,,,,,,,H,1,035,KR,VIns,2020_Feb_14_1021,Instrumental,3.2.4,59.9860387039167,
5,0,5,0,3,0,3,0,0,0,0,0,,,,,,,,,,,,,,,,,,,,,,,,,,,,,,,,,,,,,511.2940496728479,None,,,,,,,,,,,0.015022995011349849,None,101,4,513.8274083633314,None,513.8274083633314,None,514.8106898503474,None,,,,,,,,,,,,,,,,,,,,,,,,,,H,1,035,KR,VIns,2020_Feb_14_1021,Instrumental,3.2.4,59.9860387039167,
5,0,5,0,3,0,3,0,,,,,,,,,,,,,,,,,,,,,,,,,,,,,,,,,,,,,,,,,,,,,,,,,,,,,,,,,,,,,,,,,,,,,,,,,,,,,,,,,,,,,,,,H,1,035,KR,VIns,2020_Feb_14_1021,Instrumental,3.2.4,59.9860387039167,
5,0,5,0,,,,,,,,,,,,,,,,,,,,,,,,,,,,,,,,,,,,,,,,,,,,,,,,,,,,,,,,,,,,,,,,,,,516.2440278626791,None,516.2440278626791,None,516.7440180518761,None,b,1,0.5550541480824904,516.7440180518761,None,0.004607605636920198,None,109,4,517.6773429328259,None,,,,,,,,,H,1,035,KR,VIns,2020_Feb_14_1021,Instrumental,3.2.4,59.9860387039167,
6,0,6,0,0,0,0,0,0,0,0,0,,,,,,,,,,,,,,,,,,,,,,,,,,,,,,,,,,,,,519.7606713607584,None,,,,,,,,,,,0.015103896397704375,None,101,4,522.3606991328761,None,522.3606991328761,None,523.3439845442126,None,,,,,,,,,,,,,,,,,,,,,,,,,,H,1,035,KR,VIns,2020_Feb_14_1021,Instrumental,3.2.4,59.9860387039167,
6,0,6,0,0,0,0,0,,,,,,,,,,,,,,,,,,,,,,,,,,,,,,,,,,,,,,,,,,,,,,,,,,,,,,,,,,,,,,,,,,,,,,,,,,,,,,,,,,,,,,,,H,1,035,KR,VIns,2020_Feb_14_1021,Instrumental,3.2.4,59.9860387039167,
6,0,6,0,1,0,1,0,0,0,0,0,,,,,,,,,,,,,,,,,,,,,,,,,,,,,,,,,,,,,524.493991411774,None,,,,,,,,,,,0.015026013719761977,None,101,4,527.9439929965965,None,527.9439929965965,None,528.9273499513229,None,,,,,,,,,,,,,,,,,,,,,,,,,,H,1,035,KR,VIns,2020_Feb_14_1021,Instrumental,3.2.4,59.9860387039167,
6,0,6,0,1,0,1,0,,,,,,,,,,,,,,,,,,,,,,,,,,,,,,,,,,,,,,,,,,,,,,,,,,,,,,,,,,,,,,,,,,,,,,,,,,,,,,,,,,,,,,,,H,1,035,KR,VIns,2020_Feb_14_1021,Instrumental,3.2.4,59.9860387039167,
6,0,6,0,2,0,2,0,0,0,0,0,,,,,,,,,,,,,,,,,,,,,,,,,,,,,,,,,,,,,530.06062743855,None,,,,,,,,,,,0.015091519692759903,None,101,4,534.1606444942527,None,534.1606444942527,None,535.1439305093318,None,,,,,,,,,,,,,,,,,,,,,,,,,,H,1,035,KR,VIns,2020_Feb_14_1021,Instrumental,3.2.4,59.9860387039167,
6,0,6,0,2,0,2,0,,,,,,,,,,,,,,,,,,,,,,,,,,,,,,,,,,,,,,,,,,,,,,,,,,,,,,,,,,,,,,,,,,,,,,,,,,,,,,,,,,,,,,,,H,1,035,KR,VIns,2020_Feb_14_1021,Instrumental,3.2.4,59.9860387039167,
6,0,6,0,3,0,3,0,,,,,0,0,0,0,,,,,,,,,,,,,,,,,,,,,,,,,,,,,,,,,536.2939358675394,None,0.015009712694336486,None,103,4,541.4772402967392,None,541.4772402967392,None,542.4605676681231,None,,,,,,,,,,,,,,,,,,,,,,,,,,,,,,,,,,,,H,1,035,KR,VIns,2020_Feb_14_1021,Instrumental,3.2.4,59.9860387039167,
6,0,6,0,3,0,3,0,,,,,,,,,,,,,,,,,,,,,,,,,,,,,,,,,,,,,,,,,,,,,,,,,,,,,,,,,,,,,,,,,,,,,,,,,,,,,,,,,,,,,,,,H,1,035,KR,VIns,2020_Feb_14_1021,Instrumental,3.2.4,59.9860387039167,
6,0,6,0,,,,,,,,,,,,,,,,,,,,,,,,,,,,,,,,,,,,,,,,,,,,,,,,,,,,,,,,,,,,,,,,,,,543.8272311651463,None,543.8272311651463,None,544.3272252786646,None,n,1,0.5976251820666221,544.3272252786646,None,0.007194940644694725,None,109,4,545.3439163214016,None,,,,,,,,,H,1,035,KR,VIns,2020_Feb_14_1021,Instrumental,3.2.4,59.9860387039167,
7,0,7,0,0,0,0,0,,,,,0,0,0,0,,,,,,,,,,,,,,,,,,,,,,,,,,,,,,,,,547.4272151659916,None,0.015024504365101166,None,103,4,550.8771808281826,None,550.8771808281826,None,551.8605100107916,None,,,,,,,,,,,,,,,,,,,,,,,,,,,,,,,,,,,,H,1,035,KR,VIns,2020_Feb_14_1021,Instrumental,3.2.4,59.9860387039167,
7,0,7,0,0,0,0,0,,,,,,,,,,,,,,,,,,,,,,,,,,,,,,,,,,,,,,,,,,,,,,,,,,,,,,,,,,,,,,,,,,,,,,,,,,,,,,,,,,,,,,,,H,1,035,KR,VIns,2020_Feb_14_1021,Instrumental,3.2.4,59.9860387039167,
7,0,7,0,1,0,1,0,,,,,0,0,0,0,,,,,,,,,,,,,,,,,,,,,,,,,,,,,,,,,553.0271940350322,None,0.015001260309873032,None,103,4,555.3438713426458,None,555.3438713426458,None,556.3271748662337,None,,,,,,,,,,,,,,,,,,,,,,,,,,,,,,,,,,,,H,1,035,KR,VIns,2020_Feb_14_1021,Instrumental,3.2.4,59.9860387039167,
7,0,7,0,1,0,1,0,,,,,,,,,,,,,,,,,,,,,,,,,,,,,,,,,,,,,,,,,,,,,,,,,,,,,,,,,,,,,,,,,,,,,,,,,,,,,,,,,,,,,,,,H,1,035,KR,VIns,2020_Feb_14_1021,Instrumental,3.2.4,59.9860387039167,
7,0,7,0,2,0,2,0,,,,,0,0,0,0,,,,,,,,,,,,,,,,,,,,,,,,,,,,,,,,,557.493845306286,None,0.015043220358165854,None,103,4,560.4438980582154,None,560.4438980582154,None,561.4271463394389,None,,,,,,,,,,,,,,,,,,,,,,,,,,,,,,,,,,,,H,1,035,KR,VIns,2020_Feb_14_1021,Instrumental,3.2.4,59.9860387039167,
7,0,7,0,2,0,2,0,,,,,,,,,,,,,,,,,,,,,,,,,,,,,,,,,,,,,,,,,,,,,,,,,,,,,,,,,,,,,,,,,,,,,,,,,,,,,,,,,,,,,,,,H,1,035,KR,VIns,2020_Feb_14_1021,Instrumental,3.2.4,59.9860387039167,
7,0,7,0,3,0,3,0,,,,,0,0,0,0,,,,,,,,,,,,,,,,,,,,,,,,,,,,,,,,,562.5938179869745,None,0.014955375942008686,None,103,4,565.5771526032586,None,565.5771526032586,None,566.5605349151365,None,,,,,,,,,,,,,,,,,,,,,,,,,,,,,,,,,,,,H,1,035,KR,VIns,2020_Feb_14_1021,Instrumental,3.2.4,59.9860387039167,
7,0,7,0,3,0,3,0,,,,,,,,,,,,,,,,,,,,,,,,,,,,,,,,,,,,,,,,,,,,,,,,,,,,,,,,,,,,,,,,,,,,,,,,,,,,,,,,,,,,,,,,H,1,035,KR,VIns,2020_Feb_14_1021,Instrumental,3.2.4,59.9860387039167,
7,0,7,0,,,,,,,,,,,,,,,,,,,,,,,,,,,,,,,,,,,,,,,,,,,,,,,,,,,,,,,,,,,,,,,,,,,567.9937705932516,None,567.9937705932516,None,568.4937885545669,None,n,1,0.8257676952916881,568.4937885545669,None,0.006742134377418552,None,109,4,569.7104379391276,None,,,,,,,,,H,1,035,KR,VIns,2020_Feb_14_1021,Instrumental,3.2.4,59.9860387039167,
8,0,8,0,0,0,0,0,,,,,0,0,0,0,,,,,,,,,,,,,,,,,,,,,,,,,,,,,,,,,571.7937748194436,None,0.015044125970234745,None,103,4,574.1770985683779,None,574.1770985683779,None,575.1604923513478,None,,,,,,,,,,,,,,,,,,,,,,,,,,,,,,,,,,,,H,1,035,KR,VIns,2020_Feb_14_1021,Instrumental,3.2.4,59.9860387039167,
8,0,8,0,0,0,0,0,,,,,,,,,,,,,,,,,,,,,,,,,,,,,,,,,,,,,,,,,,,,,,,,,,,,,,,,,,,,,,,,,,,,,,,,,,,,,,,,,,,,,,,,H,1,035,KR,VIns,2020_Feb_14_1021,Instrumental,3.2.4,59.9860387039167,
8,0,8,0,1,0,1,0,,,,,0,0,0,0,,,,,,,,,,,,,,,,,,,,,,,,,,,,,,,,,576.3270990966512,None,0.015050465258354961,None,103,4,580.0604435992063,None,580.0604435992063,None,581.0437314255096,None,,,,,,,,,,,,,,,,,,,,,,,,,,,,,,,,,,,,H,1,035,KR,VIns,2020_Feb_14_1021,Instrumental,3.2.4,59.9860387039167,
8,0,8,0,1,0,1,0,,,,,,,,,,,,,,,,,,,,,,,,,,,,,,,,,,,,,,,,,,,,,,,,,,,,,,,,,,,,,,,,,,,,,,,,,,,,,,,,,,,,,,,,H,1,035,KR,VIns,2020_Feb_14_1021,Instrumental,3.2.4,59.9860387039167,
8,0,8,0,2,0,2,0,0,0,0,0,,,,,,,,,,,,,,,,,,,,,,,,,,,,,,,,,,,,,582.2103979412404,None,,,,,,,,,,,0.015049861516672536,None,101,4,589.0936958802176,None,589.0936958802176,None,590.0770187235394,None,,,,,,,,,,,,,,,,,,,,,,,,,,H,1,035,KR,VIns,2020_Feb_14_1021,Instrumental,3.2.4,59.9860387039167,
8,0,8,0,2,0,2,0,,,,,,,,,,,,,,,,,,,,,,,,,,,,,,,,,,,,,,,,,,,,,,,,,,,,,,,,,,,,,,,,,,,,,,,,,,,,,,,,,,,,,,,,H,1,035,KR,VIns,2020_Feb_14_1021,Instrumental,3.2.4,59.9860387039167,
8,0,8,0,3,0,3,0,0,0,0,0,,,,,,,,,,,,,,,,,,,,,,,,,,,,,,,,,,,,,591.2604034503838,None,,,,,,,,,,,0.015021183785393077,None,101,4,595.2604028466421,None,595.2604028466421,None,596.2436668251485,None,,,,,,,,,,,,,,,,,,,,,,,,,,H,1,035,KR,VIns,2020_Feb_14_1021,Instrumental,3.2.4,59.9860387039167,
8,0,8,0,3,0,3,0,,,,,,,,,,,,,,,,,,,,,,,,,,,,,,,,,,,,,,,,,,,,,,,,,,,,,,,,,,,,,,,,,,,,,,,,,,,,,,,,,,,,,,,,H,1,035,KR,VIns,2020_Feb_14_1021,Instrumental,3.2.4,59.9860387039167,
8,0,8,0,,,,,,,,,,,,,,,,,,,,,,,,,,,,,,,,,,,,,,,,,,,,,,,,,,,,,,,,,,,,,,,,,,,597.6769864233584,None,597.6769864233584,None,598.1770680794225,None,b,1,0.8472506358148166,598.1770680794225,None,0.006584437048331893,None,109,4,599.4603252658353,None,,,,,,,,,H,1,035,KR,VIns,2020_Feb_14_1021,Instrumental,3.2.4,59.9860387039167,
9,0,9,0,0,0,0,0,0,0,0,0,,,,,,,,,,,,,,,,,,,,,,,,,,,,,,,,,,,,,601.5436244122948,None,,,,,,,,,,,0.015101783302270633,None,101,4,603.7436660704716,None,603.7436660704716,None,604.7269668772215,None,,,,,,,,,,,,,,,,,,,,,,,,,,H,1,035,KR,VIns,2020_Feb_14_1021,Instrumental,3.2.4,59.9860387039167,
9,0,9,0,0,0,0,0,,,,,,,,,,,,,,,,,,,,,,,,,,,,,,,,,,,,,,,,,,,,,,,,,,,,,,,,,,,,,,,,,,,,,,,,,,,,,,,,,,,,,,,,H,1,035,KR,VIns,2020_Feb_14_1021,Instrumental,3.2.4,59.9860387039167,
9,0,9,0,1,0,1,0,0,0,0,0,,,,,,,,,,,,,,,,,,,,,,,,,,,,,,,,,,,,,605.9102909280264,None,,,,,,,,,,,0.015095142143763951,None,101,4,609.2436109790424,None,609.2436109790424,None,610.2269329167511,None,,,,,,,,,,,,,,,,,,,,,,,,,,H,1,035,KR,VIns,2020_Feb_14_1021,Instrumental,3.2.4,59.9860387039167,
9,0,9,0,1,0,1,0,,,,,,,,,,,,,,,,,,,,,,,,,,,,,,,,,,,,,,,,,,,,,,,,,,,,,,,,,,,,,,,,,,,,,,,,,,,,,,,,,,,,,,,,H,1,035,KR,VIns,2020_Feb_14_1021,Instrumental,3.2.4,59.9860387039167,
9,0,9,0,2,0,2,0,0,0,0,0,,,,,,,,,,,,,,,,,,,,,,,,,,,,,,,,,,,,,611.4102756835491,None,,,,,,,,,,,0.015095142143763951,None,101,4,615.6769480857611,None,615.6769480857611,None,616.6602425532237,None,,,,,,,,,,,,,,,,,,,,,,,,,,H,1,035,KR,VIns,2020_Feb_14_1021,Instrumental,3.2.4,59.9860387039167,
9,0,9,0,2,0,2,0,,,,,,,,,,,,,,,,,,,,,,,,,,,,,,,,,,,,,,,,,,,,,,,,,,,,,,,,,,,,,,,,,,,,,,,,,,,,,,,,,,,,,,,,H,1,035,KR,VIns,2020_Feb_14_1021,Instrumental,3.2.4,59.9860387039167,
9,0,9,0,3,0,3,0,0,0,0,0,,,,,,,,,,,,,,,,,,,,,,,,,,,,,,,,,,,,,617.8935727169128,None,,,,,,,,,,,0.015010618306405377,None,101,4,621.6769345015737,None,621.6769345015737,None,622.66022685594,None,,,,,,,,,,,,,,,,,,,,,,,,,,H,1,035,KR,VIns,2020_Feb_14_1021,Instrumental,3.2.4,59.9860387039167,
9,0,9,0,3,0,3,0,,,,,,,,,,,,,,,,,,,,,,,,,,,,,,,,,,,,,,,,,,,,,,,,,,,,,,,,,,,,,,,,,,,,,,,,,,,,,,,,,,,,,,,,H,1,035,KR,VIns,2020_Feb_14_1021,Instrumental,3.2.4,59.9860387039167,
9,0,9,0,,,,,,,,,,,,,,,,,,,,,,,,,,,,,,,,,,,,,,,,,,,,,,,,,,,,,,,,,,,,,,,,,,,624.1769421992803,None,624.1769421992803,None,624.6769668017541,None,b,1,0.8571257367530052,624.6769668017541,None,0.006154693714051973,None,109,4,625.9769298225756,None,,,,,,,,,H,1,035,KR,VIns,2020_Feb_14_1021,Instrumental,3.2.4,59.9860387039167,
10,0,10,0,0,0,0,0,0,0,0,0,,,,,,,,,,,,,,,,,,,,,,,,,,,,,,,,,,,,,628.060191838922,None,,,,,,,,,,,0.015023296881736314,None,101,4,631.6268601658776,None,631.6268601658776,None,632.6101495015355,None,,,,,,,,,,,,,,,,,,,,,,,,,,H,1,035,KR,VIns,2020_Feb_14_1021,Instrumental,3.2.4,59.9860387039167,
10,0,10,0,0,0,0,0,,,,,,,,,,,,,,,,,,,,,,,,,,,,,,,,,,,,,,,,,,,,,,,,,,,,,,,,,,,,,,,,,,,,,,,,,,,,,,,,,,,,,,,,H,1,035,KR,VIns,2020_Feb_14_1021,Instrumental,3.2.4,59.9860387039167,
10,0,10,0,1,0,1,0,0,0,0,0,,,,,,,,,,,,,,,,,,,,,,,,,,,,,,,,,,,,,633.7935097768423,None,,,,,,,,,,,0.015017863207503979,None,101,4,636.6434893250926,None,636.6434893250926,None,637.6268085459633,None,,,,,,,,,,,,,,,,,,,,,,,,,,H,1,035,KR,VIns,2020_Feb_14_1021,Instrumental,3.2.4,59.9860387039167,
10,0,10,0,1,0,1,0,,,,,,,,,,,,,,,,,,,,,,,,,,,,,,,,,,,,,,,,,,,,,,,,,,,,,,,,,,,,,,,,,,,,,,,,,,,,,,,,,,,,,,,,H,1,035,KR,VIns,2020_Feb_14_1021,Instrumental,3.2.4,59.9860387039167,
10,0,10,0,2,0,2,0,0,0,0,0,,,,,,,,,,,,,,,,,,,,,,,,,,,,,,,,,,,,,638.8268287713099,None,,,,,,,,,,,0.015071898088535818,None,101,4,641.6101298799313,None,641.6101298799313,None,642.5934937776874,None,,,,,,,,,,,,,,,,,,,,,,,,,,H,1,035,KR,VIns,2020_Feb_14_1021,Instrumental,3.2.4,59.9860387039167,
10,0,10,0,2,0,2,0,,,,,,,,,,,,,,,,,,,,,,,,,,,,,,,,,,,,,,,,,,,,,,,,,,,,,,,,,,,,,,,,,,,,,,,,,,,,,,,,,,,,,,,,H,1,035,KR,VIns,2020_Feb_14_1021,Instrumental,3.2.4,59.9860387039167,
10,0,10,0,3,0,3,0,0,0,0,0,,,,,,,,,,,,,,,,,,,,,,,,,,,,,,,,,,,,,643.7935206441925,None,,,,,,,,,,,0.015232191506584059,None,101,4,647.8434204985397,None,647.8434204985397,None,648.8267853019088,None,,,,,,,,,,,,,,,,,,,,,,,,,,H,1,035,KR,VIns,2020_Feb_14_1021,Instrumental,3.2.4,59.9860387039167,
10,0,10,0,3,0,3,0,,,,,,,,,,,,,,,,,,,,,,,,,,,,,,,,,,,,,,,,,,,,,,,,,,,,,,,,,,,,,,,,,,,,,,,,,,,,,,,,,,,,,,,,H,1,035,KR,VIns,2020_Feb_14_1021,Instrumental,3.2.4,59.9860387039167,
10,0,10,0,,,,,,,,,,,,,,,,,,,,,,,,,,,,,,,,,,,,,,,,,,,,,,,,,,,,,,,,,,,,,,,,,,,650.3600890518992,None,650.3600890518992,None,650.860090712189,None,b,1,0.8517639068131757,650.860090712189,None,0.008348389141247026,None,109,4,652.060081052322,None,,,,,,,,,H,1,035,KR,VIns,2020_Feb_14_1021,Instrumental,3.2.4,59.9860387039167,
11,0,11,0,0,0,0,0,,,,,0,0,0,0,,,,,,,,,,,,,,,,,,,,,,,,,,,,,,,,,654.4433966507431,None,0.015086086016708578,None,103,4,658.4767250032073,None,658.4767250032073,None,659.4600517708495,None,,,,,,,,,,,,,,,,,,,,,,,,,,,,,,,,,,,,H,1,035,KR,VIns,2020_Feb_14_1021,Instrumental,3.2.4,59.9860387039167,
11,0,11,0,0,0,0,0,,,,,,,,,,,,,,,,,,,,,,,,,,,,,,,,,,,,,,,,,,,,,,,,,,,,,,,,,,,,,,,,,,,,,,,,,,,,,,,,,,,,,,,,H,1,035,KR,VIns,2020_Feb_14_1021,Instrumental,3.2.4,59.9860387039167,
11,0,11,0,1,0,1,0,,,,,0,0,0,0,,,,,,,,,,,,,,,,,,,,,,,,,,,,,,,,,660.6600719961962,None,0.015105707622751652,None,103,4,663.4433821609427,None,663.4433821609427,None,664.4267016836848,None,,,,,,,,,,,,,,,,,,,,,,,,,,,,,,,,,,,,H,1,035,KR,VIns,2020_Feb_14_1021,Instrumental,3.2.4,59.9860387039167,
11,0,11,0,1,0,1,0,,,,,,,,,,,,,,,,,,,,,,,,,,,,,,,,,,,,,,,,,,,,,,,,,,,,,,,,,,,,,,,,,,,,,,,,,,,,,,,,,,,,,,,,H,1,035,KR,VIns,2020_Feb_14_1021,Instrumental,3.2.4,59.9860387039167,
11,0,11,0,2,0,2,0,,,,,0,0,0,0,,,,,,,,,,,,,,,,,,,,,,,,,,,,,,,,,665.6100468654486,None,0.015022391270576918,None,103,4,667.9933383142024,None,667.9933383142024,None,668.976718512984,None,,,,,,,,,,,,,,,,,,,,,,,,,,,,,,,,,,,,H,1,035,KR,VIns,2020_Feb_14_1021,Instrumental,3.2.4,59.9860387039167,
11,0,11,0,2,0,2,0,,,,,,,,,,,,,,,,,,,,,,,,,,,,,,,,,,,,,,,,,,,,,,,,,,,,,,,,,,,,,,,,,,,,,,,,,,,,,,,,,,,,,,,,H,1,035,KR,VIns,2020_Feb_14_1021,Instrumental,3.2.4,59.9860387039167,
11,0,11,0,3,0,3,0,,,,,0,0,0,0,,,,,,,,,,,,,,,,,,,,,,,,,,,,,,,,,670.1765222969352,None,0.01501876881957287,None,103,4,673.259971473205,None,673.259971473205,None,674.2433571056627,None,,,,,,,,,,,,,,,,,,,,,,,,,,,,,,,,,,,,H,1,035,KR,VIns,2020_Feb_14_1021,Instrumental,3.2.4,59.9860387039167,
11,0,11,0,3,0,3,0,,,,,,,,,,,,,,,,,,,,,,,,,,,,,,,,,,,,,,,,,,,,,,,,,,,,,,,,,,,,,,,,,,,,,,,,,,,,,,,,,,,,,,,,H,1,035,KR,VIns,2020_Feb_14_1021,Instrumental,3.2.4,59.9860387039167,
11,0,11,0,,,,,,,,,,,,,,,,,,,,,,,,,,,,,,,,,,,,,,,,,,,,,,,,,,,,,,,,,,,,,,,,,,,675.7100397714839,None,675.7100397714839,None,676.2100408280321,None,n,1,0.42356071754693403,676.2100408280321,None,0.007846076056011952,None,109,4,676.9766750435829,None,,,,,,,,,H,1,035,KR,VIns,2020_Feb_14_1021,Instrumental,3.2.4,59.9860387039167,
12,0,12,0,0,0,0,0,,,,,0,0,0,0,,,,,,,,,,,,,,,,,,,,,,,,,,,,,,,,,679.059964228305,None,0.01498012935189763,None,103,4,682.9766469695942,None,682.9766469695942,None,683.9599447576356,None,,,,,,,,,,,,,,,,,,,,,,,,,,,,,,,,,,,,H,1,035,KR,VIns,2020_Feb_14_1021,Instrumental,3.2.4,59.9860387039167,
12,0,12,0,0,0,0,0,,,,,,,,,,,,,,,,,,,,,,,,,,,,,,,,,,,,,,,,,,,,,,,,,,,,,,,,,,,,,,,,,,,,,,,,,,,,,,,,,,,,,,,,H,1,035,KR,VIns,2020_Feb_14_1021,Instrumental,3.2.4,59.9860387039167,
12,0,12,0,1,0,1,0,,,,,0,0,0,0,,,,,,,,,,,,,,,,,,,,,,,,,,,,,,,,,685.1766125563181,None,0.014978016255554394,None,103,4,688.5099715486731,None,688.5099715486731,None,689.4932406589842,None,,,,,,,,,,,,,,,,,,,,,,,,,,,,,,,,,,,,H,1,035,KR,VIns,2020_Feb_14_1021,Instrumental,3.2.4,59.9860387039167,
12,0,12,0,1,0,1,0,,,,,,,,,,,,,,,,,,,,,,,,,,,,,,,,,,,,,,,,,,,,,,,,,,,,,,,,,,,,,,,,,,,,,,,,,,,,,,,,,,,,,,,,H,1,035,KR,VIns,2020_Feb_14_1021,Instrumental,3.2.4,59.9860387039167,
12,0,12,0,2,0,2,0,,,,,0,0,0,0,,,,,,,,,,,,,,,,,,,,,,,,,,,,,,,,,690.7599145705508,None,0.015286528258911858,None,103,4,693.576571200012,None,693.576571200012,None,694.5598934395921,None,,,,,,,,,,,,,,,,,,,,,,,,,,,,,,,,,,,,H,1,035,KR,VIns,2020_Feb_14_1021,Instrumental,3.2.4,59.9860387039167,
12,0,12,0,2,0,2,0,,,,,,,,,,,,,,,,,,,,,,,,,,,,,,,,,,,,,,,,,,,,,,,,,,,,,,,,,,,,,,,,,,,,,,,,,,,,,,,,,,,,,,,,H,1,035,KR,VIns,2020_Feb_14_1021,Instrumental,3.2.4,59.9860387039167,
12,0,12,0,3,0,3,0,,,,,0,0,0,0,,,,,,,,,,,,,,,,,,,,,,,,,,,,,,,,,695.7932326594064,None,0.014979827479692176,None,103,4,698.6598564604137,None,698.6598564604137,None,699.6432282068117,None,,,,,,,,,,,,,,,,,,,,,,,,,,,,,,,,,,,,H,1,035,KR,VIns,2020_Feb_14_1021,Instrumental,3.2.4,59.9860387039167,
12,0,12,0,3,0,3,0,,,,,,,,,,,,,,,,,,,,,,,,,,,,,,,,,,,,,,,,,,,,,,,,,,,,,,,,,,,,,,,,,,,,,,,,,,,,,,,,,,,,,,,,H,1,035,KR,VIns,2020_Feb_14_1021,Instrumental,3.2.4,59.9860387039167,
12,0,12,0,,,,,,,,,,,,,,,,,,,,,,,,,,,,,,,,,,,,,,,,,,,,,,,,,,,,,,,,,,,,,,,,,,,701.1432374138722,None,701.1432374138722,None,701.6432339423582,None,n,1,0.4031267782083887,701.6432339423582,None,0.007827661935152719,None,109,4,702.409855781204,None,,,,,,,,,H,1,035,KR,VIns,2020_Feb_14_1021,Instrumental,3.2.4,59.9860387039167,
13,0,13,0,0,0,0,0,,,,,0,0,0,0,,,,,,,,,,,,,,,,,,,,,,,,,,,,,,,,,704.4932153018335,None,0.01498827986415563,None,103,4,707.293213792479,None,707.293213792479,None,708.2764989019452,None,,,,,,,,,,,,,,,,,,,,,,,,,,,,,,,,,,,,H,1,035,KR,VIns,2020_Feb_14_1021,Instrumental,3.2.4,59.9860387039167,
13,0,13,0,0,0,0,0,,,,,,,,,,,,,,,,,,,,,,,,,,,,,,,,,,,,,,,,,,,,,,,,,,,,,,,,,,,,,,,,,,,,,,,,,,,,,,,,,,,,,,,,H,1,035,KR,VIns,2020_Feb_14_1021,Instrumental,3.2.4,59.9860387039167,
13,0,13,0,1,0,1,0,,,,,0,0,0,0,,,,,,,,,,,,,,,,,,,,,,,,,,,,,,,,,709.4932331122127,None,0.015006090244241932,None,103,4,712.2265069769901,None,712.2265069769901,None,713.2098138211568,None,,,,,,,,,,,,,,,,,,,,,,,,,,,,,,,,,,,,H,1,035,KR,VIns,2020_Feb_14_1021,Instrumental,3.2.4,59.9860387039167,
13,0,13,0,1,0,1,0,,,,,,,,,,,,,,,,,,,,,,,,,,,,,,,,,,,,,,,,,,,,,,,,,,,,,,,,,,,,,,,,,,,,,,,,,,,,,,,,,,,,,,,,H,1,035,KR,VIns,2020_Feb_14_1021,Instrumental,3.2.4,59.9860387039167,
13,0,13,0,2,0,2,0,,,,,0,0,0,0,,,,,,,,,,,,,,,,,,,,,,,,,,,,,,,,,714.4931476827642,None,0.014676749152386037,None,103,4,716.8431168164698,None,716.8431168164698,None,717.826526900466,None,,,,,,,,,,,,,,,,,,,,,,,,,,,,,,,,,,,,H,1,035,KR,VIns,2020_Feb_14_1021,Instrumental,3.2.4,59.9860387039167,
13,0,13,0,2,0,2,0,,,,,,,,,,,,,,,,,,,,,,,,,,,,,,,,,,,,,,,,,,,,,,,,,,,,,,,,,,,,,,,,,,,,,,,,,,,,,,,,,,,,,,,,H,1,035,KR,VIns,2020_Feb_14_1021,Instrumental,3.2.4,59.9860387039167,
13,0,13,0,3,0,3,0,,,,,0,0,0,0,,,,,,,,,,,,,,,,,,,,,,,,,,,,,,,,,719.0598329144877,None,0.01505921951320488,None,103,4,721.8598120853994,None,721.8598120853994,None,722.8431412680084,None,,,,,,,,,,,,,,,,,,,,,,,,,,,,,,,,,,,,H,1,035,KR,VIns,2020_Feb_14_1021,Instrumental,3.2.4,59.9860387039167,
13,0,13,0,3,0,3,0,,,,,,,,,,,,,,,,,,,,,,,,,,,,,,,,,,,,,,,,,,,,,,,,,,,,,,,,,,,,,,,,,,,,,,,,,,,,,,,,,,,,,,,,H,1,035,KR,VIns,2020_Feb_14_1021,Instrumental,3.2.4,59.9860387039167,
13,0,13,0,,,,,,,,,,,,,,,,,,,,,,,,,,,,,,,,,,,,,,,,,,,,,,,,,,,,,,,,,,,,,,,,,,,724.3431414189436,None,724.3431414189436,None,724.8431319100118,None,n,1,0.4000090561257821,724.8431319100118,None,0.006932313010111102,None,109,4,725.709760842823,None,,,,,,,,,H,1,035,KR,VIns,2020_Feb_14_1021,Instrumental,3.2.4,59.9860387039167,
14,0,14,0,0,0,0,0,,,,,0,0,0,0,,,,,,,,,,,,,,,,,,,,,,,,,,,,,,,,,727.7930814221136,None,0.015013033274044574,None,103,4,730.6097368440915,None,730.6097368440915,None,731.5930581780585,None,,,,,,,,,,,,,,,,,,,,,,,,,,,,,,,,,,,,H,1,035,KR,VIns,2020_Feb_14_1021,Instrumental,3.2.4,59.9860387039167,
14,0,14,0,0,0,0,0,,,,,,,,,,,,,,,,,,,,,,,,,,,,,,,,,,,,,,,,,,,,,,,,,,,,,,,,,,,,,,,,,,,,,,,,,,,,,,,,,,,,,,,,H,1,035,KR,VIns,2020_Feb_14_1021,Instrumental,3.2.4,59.9860387039167,
14,0,14,0,1,0,1,0,,,,,0,0,0,0,,,,,,,,,,,,,,,,,,,,,,,,,,,,,,,,,732.8263983034858,None,0.014920057052222546,None,103,4,736.4263795874931,None,736.4263795874931,None,737.4097042420399,None,,,,,,,,,,,,,,,,,,,,,,,,,,,,,,,,,,,,H,1,035,KR,VIns,2020_Feb_14_1021,Instrumental,3.2.4,59.9860387039167,
14,0,14,0,1,0,1,0,,,,,,,,,,,,,,,,,,,,,,,,,,,,,,,,,,,,,,,,,,,,,,,,,,,,,,,,,,,,,,,,,,,,,,,,,,,,,,,,,,,,,,,,H,1,035,KR,VIns,2020_Feb_14_1021,Instrumental,3.2.4,59.9860387039167,
14,0,14,0,2,0,2,0,,,,,0,0,0,0,,,,,,,,,,,,,,,,,,,,,,,,,,,,,,,,,738.7097016761381,None,0.014993109797615034,None,103,4,744.7929860309268,None,744.7929860309268,None,745.7763173266321,None,,,,,,,,,,,,,,,,,,,,,,,,,,,,,,,,,,,,H,1,035,KR,VIns,2020_Feb_14_1021,Instrumental,3.2.4,59.9860387039167,
14,0,14,0,2,0,2,0,,,,,,,,,,,,,,,,,,,,,,,,,,,,,,,,,,,,,,,,,,,,,,,,,,,,,,,,,,,,,,,,,,,,,,,,,,,,,,,,,,,,,,,,H,1,035,KR,VIns,2020_Feb_14_1021,Instrumental,3.2.4,59.9860387039167,
14,0,14,0,3,0,3,0,,,,,0,0,0,0,,,,,,,,,,,,,,,,,,,,,,,,,,,,,,,,,747.0097612956297,None,0.015077633634064114,None,103,4,750.1430493483367,None,750.1430493483367,None,751.1263075912966,None,,,,,,,,,,,,,,,,,,,,,,,,,,,,,,,,,,,,H,1,035,KR,VIns,2020_Feb_14_1021,Instrumental,3.2.4,59.9860387039167,
14,0,14,0,3,0,3,0,,,,,,,,,,,,,,,,,,,,,,,,,,,,,,,,,,,,,,,,,,,,,,,,,,,,,,,,,,,,,,,,,,,,,,,,,,,,,,,,,,,,,,,,H,1,035,KR,VIns,2020_Feb_14_1021,Instrumental,3.2.4,59.9860387039167,
14,0,14,0,,,,,,,,,,,,,,,,,,,,,,,,,,,,,,,,,,,,,,,,,,,,,,,,,,,,,,,,,,,,,,,,,,,752.6430470843052,None,752.6430470843052,None,753.1430741017457,None,n,1,0.6038419102387707,753.1430741017457,None,0.005931309289735509,None,109,4,754.1596679420709,None,,,,,,,,,H,1,035,KR,VIns,2020_Feb_14_1021,Instrumental,3.2.4,59.9860387039167,
15,0,15,0,0,0,0,0,,,,,0,0,0,0,,,,,,,,,,,,,,,,,,,,,,,,,,,,,,,,,756.242942033251,None,0.015011825789770228,None,103,4,759.5596552634952,None,759.5596552634952,None,760.5429850498467,None,,,,,,,,,,,,,,,,,,,,,,,,,,,,,,,,,,,,H,1,035,KR,VIns,2020_Feb_14_1021,Instrumental,3.2.4,59.9860387039167,
15,0,15,0,0,0,0,0,,,,,,,,,,,,,,,,,,,,,,,,,,,,,,,,,,,,,,,,,,,,,,,,,,,,,,,,,,,,,,,,,,,,,,,,,,,,,,,,,,,,,,,,H,1,035,KR,VIns,2020_Feb_14_1021,Instrumental,3.2.4,59.9860387039167,
15,0,15,0,1,0,1,0,,,,,0,0,0,0,,,,,,,,,,,,,,,,,,,,,,,,,,,,,,,,,761.7760866973067,None,0.01500941082213103,None,103,4,764.2095862105398,None,764.2095862105398,None,765.1929286754657,None,,,,,,,,,,,,,,,,,,,,,,,,,,,,,,,,,,,,H,1,035,KR,VIns,2020_Feb_14_1021,Instrumental,3.2.4,59.9860387039167,
15,0,15,0,1,0,1,0,,,,,,,,,,,,,,,,,,,,,,,,,,,,,,,,,,,,,,,,,,,,,,,,,,,,,,,,,,,,,,,,,,,,,,,,,,,,,,,,,,,,,,,,H,1,035,KR,VIns,2020_Feb_14_1021,Instrumental,3.2.4,59.9860387039167,
15,0,15,0,2,0,2,0,,,,,0,0,0,0,,,,,,,,,,,,,,,,,,,,,,,,,,,,,,,,,766.4929131291174,None,0.015000958440396062,None,103,4,769.3262291048777,None,769.3262291048777,None,770.30955949497,None,,,,,,,,,,,,,,,,,,,,,,,,,,,,,,,,,,,,H,1,035,KR,VIns,2020_Feb_14_1021,Instrumental,3.2.4,59.9860387039167,
15,0,15,0,2,0,2,0,,,,,,,,,,,,,,,,,,,,,,,,,,,,,,,,,,,,,,,,,,,,,,,,,,,,,,,,,,,,,,,,,,,,,,,,,,,,,,,,,,,,,,,,H,1,035,KR,VIns,2020_Feb_14_1021,Instrumental,3.2.4,59.9860387039167,
15,0,15,0,3,0,3,0,0,0,0,0,,,,,,,,,,,,,,,,,,,,,,,,,,,,,,,,,,,,,771.5596003230021,None,,,,,,,,,,,0.01502450436601066,None,101,4,776.6928989411881,None,776.6928989411881,None,777.6761701645946,None,,,,,,,,,,,,,,,,,,,,,,,,,,H,1,035,KR,VIns,2020_Feb_14_1021,Instrumental,3.2.4,59.9860387039167,
15,0,15,0,3,0,3,0,,,,,,,,,,,,,,,,,,,,,,,,,,,,,,,,,,,,,,,,,,,,,,,,,,,,,,,,,,,,,,,,,,,,,,,,,,,,,,,,,,,,,,,,H,1,035,KR,VIns,2020_Feb_14_1021,Instrumental,3.2.4,59.9860387039167,
15,0,15,0,,,,,,,,,,,,,,,,,,,,,,,,,,,,,,,,,,,,,,,,,,,,,,,,,,,,,,,,,,,,,,,,,,,779.242864150573,None,779.242864150573,None,779.7428742632464,None,b,1,0.36576814809723146,779.7428742632464,None,0.008278355106085655,None,109,4,780.4261640517107,None,,,,,,,,,H,1,035,KR,VIns,2020_Feb_14_1021,Instrumental,3.2.4,59.9860387039167,
,,,,,,,,,,,,,,,,,,,,,,,,,,,,,,,,,,,,,,,,,,,,,,,,,,,,,,,,,,,,,,,,,,,,,,,,,,,,,,,,,,,,,,,782.5928402273084,None,783.2595524764729,None,q,18.175919460858495,783.2595524764729,None,H,1,035,KR,VIns,2020_Feb_14_1021,Instrumental,3.2.4,59.9860387039167,
