testCS,correctAns,CS,US,blocks.thisRepN,blocks.thisTrialN,blocks.thisN,blocks.thisIndex,trials.thisRepN,trials.thisTrialN,trials.thisN,trials.thisIndex,p_port_4_start,p_port_4_end,key_resp_4.keys,key_resp_4.rt,key_resp_4.started,key_resp_4.stopped,text_2.started,text_2.stopped,p_port_4.started,p_port_4.stopped,Ready.started,Ready.stopped,vend.started,vend.stopped,p_port.started,p_port.stopped,p_port_start,p_port_end,p_port_3_start,p_port_3_end,vend_CS.started,vend_CS.stopped,p_port_3.started,p_port_3.stopped,Outcome.started,Outcome.stopped,reward.started,reward.stopped,p_port_2.started,p_port_2.stopped,vend_testy.started,vend_testy.stopped,choice_text.started,choice_text.stopped,key_resp_2.keys,key_resp_2.corr,key_resp_2.rt,key_resp_2.started,key_resp_2.stopped,option_text.started,option_text.stopped,p_port_2_start,p_port_2_end,image.started,image.stopped,p_port_5.started,p_port_5.stopped,p_port_5_start,p_port_5_end,feedback_text.started,feedback_text.stopped,text.started,text.stopped,finish_text.started,finish_text.stopped,Thankyou_text.started,Thankyou_text.stopped,version,participant,CB,participant initials,phase,date,expName,psychopyVersion,frameRate,
,,,,,,,,,,,,159,4,q,3.4834993929353004,117.4627568852402,None,,,,,,,,,,,,,,,,,,,,,,,,,,,,,,,,,,,,,,,,,,,,,,,,,,,,B,045,yes,ES,Vpav,2020_Feb_19_1054,Pavlovian,3.2.4,59.94441056569209,
CBblue.png,s,green.png,2,0,0,0,2,0,0,0,1,,,,,,,117.4627568852402,None,0.014685724429000402,1.0127600850801173,120.96268745475754,None,137.1628223310172,None,0.016435583907878026,1.5162088782881256,111,4,117,4,138.8627208417638,141.86267495727043,1.9995404305782358,3.4995383174764356,140.86267556101393,None,141.82930395035328,None,,,,,,,,,,,,,,,,,,,,,,,,,,,,,,B,045,yes,ES,Vpav,2020_Feb_19_1054,Pavlovian,3.2.4,59.94441056569209,
CBblue.png,s,red.png,1,0,0,0,2,0,1,1,0,,,,,,,,,,,,,142.7793242663165,None,0.014315810892185254,1.511921062975489,111,4,117,4,144.39607584948226,147.3960139657911,2.0119255910503853,3.511916836772798,146.3960169845077,None,147.37931291594214,None,,,,,,,,,,,,,,,,,,,,,,,,,,,,,,B,045,yes,ES,Vpav,2020_Feb_19_1054,Pavlovian,3.2.4,59.94441056569209,
CBblue.png,s,blue.png,3,0,0,0,2,0,2,2,2,,,,,,,,,,,,,148.29601807124527,None,0.014907720851624617,1.5131441865860324,111,4,117,4,149.94600723405256,152.9459628589184,2.01310524514156,None,151.94598821613818,None,152.9292844494439,None,,,,,,,,,,,,,,,,,,,,,,,,,,,,,,B,045,yes,ES,Vpav,2020_Feb_19_1054,Pavlovian,3.2.4,59.94441056569209,
CBblue.png,s,yellow.png,4,0,0,0,2,0,3,3,3,,,,,,,,,,,,,153.79600720386588,None,0.012816504895454273,1.5089537550738896,111,4,117,4,155.36267827785832,158.36262665780396,2.008962207480181,3.5089268884958074,157.36262212972906,None,158.34595368201917,None,,,,,,,,,,,,,,,,,,,,,,,,,,,,,,B,045,yes,ES,Vpav,2020_Feb_19_1054,Pavlovian,3.2.4,59.94441056569209,
CBblue.png,s,green.png,2,0,0,0,2,1,0,4,1,,,,,,,,,,,,,159.2960020720475,None,0.009578901102941018,1.5024206183179558,111,4,117,4,160.87930597289323,163.87928484187705,2.0024227314188465,3.502419712702249,162.87928061567345,None,163.86260280994247,None,,,,,,,,,,,,,,,,,,,,,,,,,,,,,,B,045,yes,ES,Vpav,2020_Feb_19_1054,Pavlovian,3.2.4,59.94441056569209,
CBblue.png,s,blue.png,3,0,0,0,2,1,1,5,2,,,,,,,,,,,,,164.76261778277694,None,0.013608767078039818,1.5105779755649564,111,4,117,4,166.412647396387,169.41259638007614,2.0106401611274123,3.51058340925465,168.41260090815103,None,169.3960221163261,None,,,,,,,,,,,,,,,,,,,,,,,,,,,,,,B,045,yes,ES,Vpav,2020_Feb_19_1054,Pavlovian,3.2.4,59.94441056569209,
CBblue.png,s,yellow.png,4,0,0,0,2,1,2,6,3,,,,,,,,,,,,,170.27927113690293,None,0.008465356907436217,1.5003096901427853,111,4,117,4,171.82931361024657,174.8292813099788,2.000361008324944,3.5003148219602735,173.82930787468467,None,174.8126527093291,None,,,,,,,,,,,,,,,,,,,,,,,,,,,,,,B,045,yes,ES,Vpav,2020_Feb_19_1054,Pavlovian,3.2.4,59.94441056569209,
CBblue.png,s,red.png,1,0,0,0,2,1,3,7,0,,,,,,,,,,,,,175.81265421868738,None,0.01346272156752093,1.5102616744352417,111,4,117,4,177.4292998448982,180.42926120532593,2.0102462789800484,3.510251410798446,179.42927478955062,None,180.41261992606633,None,,,,,,,,,,,,,,,,,,,,,,,,,,,,,,B,045,yes,ES,Vpav,2020_Feb_19_1054,Pavlovian,3.2.4,59.94441056569209,
CBblue.png,s,red.png,1,0,0,0,2,2,0,8,0,,,,,,,,,,,,,181.2959718848806,None,0.004179896192908927,1.4916440715724093,111,4,117,4,182.8959934385175,185.89590800883707,2.008314028640598,3.5083254997634867,184.89590951819537,None,185.89590800883707,None,,,,,,,,,,,,,,,,,,,,,,,,,,,,,,B,045,yes,ES,Vpav,2020_Feb_19_1054,Pavlovian,3.2.4,59.94441056569209,
CBblue.png,s,blue.png,3,0,0,0,2,2,1,9,2,,,,,,,,,,,,,186.7959773185712,None,0.015025269677607866,1.5133628624198536,111,4,117,4,188.54590864276724,191.54592101950584,2.0133402220453718,None,190.54591618955874,None,191.52921725281158,None,,,,,,,,,,,,,,,,,,,,,,,,,,,,,,B,045,yes,ES,Vpav,2020_Feb_19_1054,Pavlovian,3.2.4,59.94441056569209,
CBblue.png,s,green.png,2,0,0,0,2,2,2,10,1,,,,,,,,,,,,,192.31259082563702,None,0.01467204964319535,1.5126434720568795,111,4,117,4,193.84598356731476,196.8459189667783,2.012625963499886,3.512614492376997,195.8459307397734,None,196.82921278511094,None,,,,,,,,,,,,,,,,,,,,,,,,,,,,,,B,045,yes,ES,Vpav,2020_Feb_19_1054,Pavlovian,3.2.4,59.94441056569209,
CBblue.png,s,yellow.png,4,0,0,0,2,2,3,11,3,,,,,,,,,,,,,197.77922283743737,None,0.012213335121487034,1.507741710152004,111,4,117,4,199.41262958595962,202.41260211563804,2.0077522756600956,3.5077857834148745,201.41261388863222,None,202.39589714145677,None,,,,,,,,,,,,,,,,,,,,,,,,,,,,,,B,045,yes,ES,Vpav,2020_Feb_19_1054,Pavlovian,3.2.4,59.94441056569209,
CBblue.png,s,,,0,0,0,2,,,,,,,,,,,,,,,,,203.3459156461895,None,,,,,,,,,,,,,,,0.01643537259678851,1.0160930501288021,204.92924822484383,None,205.92924279115414,None,s,1,4.598351599587659,205.92924279115414,None,204.92924822484383,None,159,4,204.92924822484383,None,0.010968295627208136,None,119,4,210.81252833820326,None,,,,,,,B,045,yes,ES,Vpav,2020_Feb_19_1054,Pavlovian,3.2.4,59.94441056569209,
CByellow.png,k,green.png,2,0,1,1,3,0,0,0,1,,,,,,,,,,,,,213.02925559051255,None,0.00938114497512288,1.5020933592459187,111,4,117,4,214.64592778143106,217.6458743501462,2.002069511384434,3.502065587053039,216.6458616715363,None,217.6292222035063,None,,,,,,,,,,,,,,,,,,,,,,,,,,,,,,B,045,yes,ES,Vpav,2020_Feb_19_1054,Pavlovian,3.2.4,59.94441056569209,
CByellow.png,k,red.png,1,0,1,1,3,0,1,1,0,,,,,,,,,,,,,218.54584826843438,None,0.005167227846868627,1.4936393527150358,111,4,117,4,220.19587124086775,223.19583501626857,2.0103135359868247,None,222.19584467616187,None,223.19583501626857,None,,,,,,,,,,,,,,,,,,,,,,,,,,,,,,B,045,yes,ES,Vpav,2020_Feb_19_1054,Pavlovian,3.2.4,59.94441056569209,
CByellow.png,k,yellow.png,4,0,1,1,3,0,2,2,3,,,,,,,,,,,,,224.06255384635824,None,0.004966302065440686,1.493300773455303,111,4,117,4,225.66254913716057,228.66253283609058,2.0099897484378744,3.509938732126102,227.66254702405877,None,228.66253283609058,None,,,,,,,,,,,,,,,,,,,,,,,,,,,,,,B,045,yes,ES,Vpav,2020_Feb_19_1054,Pavlovian,3.2.4,59.94441056569209,
CByellow.png,k,blue.png,3,0,1,1,3,0,3,3,2,,,,,,,,,,,,,229.57903090743275,None,0.005765175239503151,1.4948377228492973,111,4,117,4,231.2791814810189,234.27913438903943,2.011502548099088,None,233.2791561237991,None,234.27913438903943,None,,,,,,,,,,,,,,,,,,,,,,,,,,,,,,B,045,yes,ES,Vpav,2020_Feb_19_1054,Pavlovian,3.2.4,59.94441056569209,
CByellow.png,k,blue.png,3,0,1,1,3,1,0,4,2,,,,,,,,,,,,,235.0458165719092,None,0.00934150922603294,1.5019833873993775,111,4,117,4,236.7292374178387,239.72914896944076,2.001986104244679,None,238.72917281730224,None,239.71247086183757,None,,,,,,,,,,,,,,,,,,,,,,,,,,,,,,B,045,yes,ES,Vpav,2020_Feb_19_1054,Pavlovian,3.2.4,59.94441056569209,
CByellow.png,k,green.png,2,0,1,1,3,1,1,5,1,,,,,,,,,,,,,240.54587392752546,None,0.012050897978042485,1.5074087155180678,111,4,117,4,242.17919645385336,245.17916837978828,2.0074446382468523,3.5074075080319744,244.1791626442273,None,245.1624954040044,None,,,,,,,,,,,,,,,,,,,,,,,,,,,,,,B,045,yes,ES,Vpav,2020_Feb_19_1054,Pavlovian,3.2.4,59.94441056569209,
CByellow.png,k,red.png,1,0,1,1,3,1,2,6,0,,,,,,,,,,,,,246.02914118115132,None,0.00157377773848566,1.503141397292893,111,4,117,4,247.71251252012735,250.71246301317478,2.003143208522488,None,249.7124542588963,None,250.6957927542353,None,,,,,,,,,,,,,,,,,,,,,,,,,,,,,,B,045,yes,ES,Vpav,2020_Feb_19_1054,Pavlovian,3.2.4,59.94441056569209,
CByellow.png,k,yellow.png,4,0,1,1,3,1,3,7,3,,,,,,,,,,,,,251.5624629829872,None,0.009668889047134144,1.502635279259266,111,4,117,4,253.06248532149039,256.0624427575858,2.0026232043928758,3.5026301474408683,255.06244245571452,None,256.0458144588074,None,,,,,,,,,,,,,,,,,,,,,,,,,,,,,,B,045,yes,ES,Vpav,2020_Feb_19_1054,Pavlovian,3.2.4,59.94441056569209,
CByellow.png,k,blue.png,3,0,1,1,3,2,0,8,2,,,,,,,,,,,,,257.0624327958212,None,0.007168576609728916,1.4976261114170484,111,4,117,4,258.7458418687547,261.74583100137534,2.0143618765077917,None,260.74583251073363,None,261.74583100137534,None,,,,,,,,,,,,,,,,,,,,,,,,,,,,,,B,045,yes,ES,Vpav,2020_Feb_19_1054,Pavlovian,3.2.4,59.94441056569209,
CByellow.png,k,yellow.png,4,0,1,1,3,2,1,9,3,,,,,,,,,,,,,262.5458395141559,None,0.0019261827192167402,1.4871930342515043,111,4,117,4,264.14560930682455,267.14575541271006,2.0038551426559934,3.503846690249702,266.14576386511635,None,267.14575541271006,None,,,,,,,,,,,,,,,,,,,,,,,,,,,,,,B,045,yes,ES,Vpav,2020_Feb_19_1054,Pavlovian,3.2.4,59.94441056569209,
CByellow.png,k,red.png,1,0,1,1,3,2,2,10,0,,,,,,,,,,,,,268.0624696241639,None,0.003950654850996216,1.4911926526856405,111,4,117,4,269.6624634056079,272.6624591794043,2.0079371720548806,3.5078855520005163,271.6624667261958,None,272.6624591794043,None,,,,,,,,,,,,,,,,,,,,,,,,,,,,,,B,045,yes,ES,Vpav,2020_Feb_19_1054,Pavlovian,3.2.4,59.94441056569209,
CByellow.png,k,green.png,2,0,1,1,3,2,3,11,1,,,,,,,,,,,,,273.5624427575858,None,0.012360950364382006,1.5079892449166437,111,4,117,4,275.1124248565966,278.112403121836,2.0080028291413328,3.5080079609597306,277.112386820766,None,278.0957325610252,None,,,,,,,,,,,,,,,,,,,,,,,,,,,,,,B,045,yes,ES,Vpav,2020_Feb_19_1054,Pavlovian,3.2.4,59.94441056569209,
CByellow.png,k,,,0,1,1,3,,,,,,,,,,,,,,,,,279.0790855462037,None,,,,,,,,,,,,,,,0.0164239014748091,1.0161054268683074,280.66243080346794,None,281.66244378394913,None,k,1,2.8616498010969735,281.66244378394913,None,280.66243080346794,None,159,4,280.66243080346794,None,0.011761674736590066,None,119,4,284.7790447331545,None,,,,,,,B,045,yes,ES,Vpav,2020_Feb_19_1054,Pavlovian,3.2.4,59.94441056569209,
CBred.png,b,green.png,2,0,2,2,0,0,0,0,1,,,,,,,,,,,,,286.9957593068548,None,0.0139137178330202,1.511201099054233,111,4,117,4,288.6290643246257,291.6290513441445,2.0111980803376355,3.511207136487428,290.629043797353,None,291.61238923574,None,,,,,,,,,,,,,,,,,,,,,,,,,,,,,,B,045,yes,ES,Vpav,2020_Feb_19_1054,Pavlovian,3.2.4,59.94441056569209,
CBred.png,b,red.png,1,0,2,2,0,0,1,1,0,,,,,,,,,,,,,292.4957505525763,None,0.010733711156717618,1.504739143639199,111,4,117,4,294.1624757823456,297.16243201095494,2.00472555941451,3.504744275457597,296.16243804838814,None,297.1457101319602,None,,,,,,,,,,,,,,,,,,,,,,,,,,,,,,B,045,yes,ES,Vpav,2020_Feb_19_1054,Pavlovian,3.2.4,59.94441056569209,
CBred.png,b,blue.png,3,0,2,2,0,0,2,2,2,,,,,,,,,,,,,298.02907718435836,None,0.007432442631397862,1.4982377335963974,111,4,117,4,299.71238573402843,302.71235916932164,2.014863013658214,None,301.71236248991045,None,302.71235916932164,None,,,,,,,,,,,,,,,,,,,,,,,,,,,,,,B,045,yes,ES,Vpav,2020_Feb_19_1054,Pavlovian,3.2.4,59.94441056569209,
CBred.png,b,yellow.png,4,0,2,2,0,0,3,3,3,,,,,,,,,,,,,303.5123643615143,None,0.016191067858926544,1.5157400715916083,111,4,117,4,305.1290528535028,308.1290199494915,1.9990984904607103,3.4990577377857335,307.1290136101861,None,308.09568033722735,None,,,,,,,,,,,,,,,,,,,,,,,,,,,,,,B,045,yes,ES,Vpav,2020_Feb_19_1054,Pavlovian,3.2.4,59.94441056569209,
CBred.png,b,yellow.png,4,0,2,2,0,1,0,4,3,,,,,,,,,,,,,309.0457000494471,None,0.00995986314228503,1.5032809525609991,111,4,117,4,310.629042589866,313.6290093839825,2.0032619346466163,3.503246237320127,312.6290136101861,None,313.61233610632644,None,,,,,,,,,,,,,,,,,,,,,,,,,,,,,,B,045,yes,ES,Vpav,2020_Feb_19_1054,Pavlovian,3.2.4,59.94441056569209,
CBred.png,b,green.png,2,0,2,2,0,1,1,5,1,,,,,,,,,,,,,314.545673182869,None,0.01077823722607718,1.50484615714322,111,4,117,4,316.1290709658024,319.12899730911613,2.0048657788020137,3.5048262336140397,318.12899338478474,None,319.1123653878785,None,,,,,,,,,,,,,,,,,,,,,,,,,,,,,,B,045,yes,ES,Vpav,2020_Feb_19_1054,Pavlovian,3.2.4,59.94441056569209,
CBred.png,b,red.png,1,0,2,2,0,1,2,6,0,,,,,,,,,,,,,320.0123371930649,None,0.003336678073537769,1.4900585510304154,111,4,117,4,321.69571547508895,324.6956484595794,2.0066771899155356,None,323.6956578176014,None,324.6956484595794,None,,,,,,,,,,,,,,,,,,,,,,,,,,,,,,B,045,yes,ES,Vpav,2020_Feb_19_1054,Pavlovian,3.2.4,59.94441056569209,
CBred.png,b,blue.png,3,0,2,2,0,1,3,7,2,,,,,,,,,,,,,325.5289999052129,None,0.016580301184148993,1.516504229523889,111,4,117,4,327.22901131596154,330.22900950473195,1.999819480744918,None,329.22903003200463,None,330.19572875744234,None,,,,,,,,,,,,,,,,,,,,,,,,,,,,,,B,045,yes,ES,Vpav,2020_Feb_19_1054,Pavlovian,3.2.4,59.94441056569209,
CBred.png,b,red.png,1,0,2,2,0,2,0,8,0,,,,,,,,,,,,,331.01229945910654,None,0.002920336672104895,1.4891555925050852,111,4,117,4,332.6954972218755,335.69567411867047,2.005804418556181,None,334.6956544970126,None,335.69567411867047,None,,,,,,,,,,,,,,,,,,,,,,,,,,,,,,B,045,yes,ES,Vpav,2020_Feb_19_1054,Pavlovian,3.2.4,59.94441056569209,
CBred.png,b,blue.png,3,0,2,2,0,2,1,9,2,,,,,,,,,,,,,336.5290047351591,None,0.011721163560650893,1.506759600879377,111,4,117,4,338.1956692887243,341.1956593269597,2.0067505447295844,None,340.1956620438041,None,341.1789434853981,None,,,,,,,,,,,,,,,,,,,,,,,,,,,,,,B,045,yes,ES,Vpav,2020_Feb_19_1054,Pavlovian,3.2.4,59.94441056569209,
CBred.png,b,green.png,2,0,2,2,0,2,2,10,1,,,,,,,,,,,,,342.01228859172716,None,0.0088961277715498,1.501106027591959,111,4,117,4,343.61236025606013,346.6122784488389,2.0009131315982813,3.501105725720663,345.6122772413519,None,346.59565679123716,None,,,,,,,,,,,,,,,,,,,,,,,,,,,,,,B,045,yes,ES,Vpav,2020_Feb_19_1054,Pavlovian,3.2.4,59.94441056569209,
CBred.png,b,yellow.png,4,0,2,2,0,2,3,11,3,,,,,,,,,,,,,347.49565184054245,None,0.0018510468617023434,1.5036737479731528,111,4,117,4,349.129011195213,352.12896380136135,2.003675861074953,3.5036843134812443,351.12897859307304,None,352.1122609402819,None,,,,,,,,,,,,,,,,,,,,,,,,,,,,,,B,045,yes,ES,Vpav,2020_Feb_19_1054,Pavlovian,3.2.4,59.94441056569209,
CBred.png,b,,,0,2,2,0,,,,,,,,,,,,,,,,,353.09566494177216,None,,,,,,,,,,,,,,,0.01616217874106951,1.0155370025231605,354.6956403090444,None,355.6956312528946,None,b,1,4.423974526861457,355.6956312528946,None,354.6956403090444,None,159,4,354.6956403090444,None,0.010713274444242415,None,119,4,360.3789126341144,None,,,,,,,B,045,yes,ES,Vpav,2020_Feb_19_1054,Pavlovian,3.2.4,59.94441056569209,
CBgreen.png,n,yellow.png,4,0,3,3,1,0,0,0,3,,,,,,,,,,,,,362.61231044723536,None,0.0003582612926038564,1.5007075268085828,111,4,117,4,364.21234377386736,367.2122776639726,2.0007123567556846,3.5007075268085828,366.2122833995345,None,367.1955844627864,None,,,,,,,,,,,,,,,,,,,,,,,,,,,,,,B,045,yes,ES,Vpav,2020_Feb_19_1054,Pavlovian,3.2.4,59.94441056569209,
CBgreen.png,n,blue.png,3,0,3,3,1,0,1,1,2,,,,,,,,,,,,,368.1455794215299,None,0.008761553384829313,1.5008564401014155,111,4,117,4,369.8289320444628,372.82890034793763,2.00084617646462,None,371.82890004606634,None,372.81226631359823,None,,,,,,,,,,,,,,,,,,,,,,,,,,,,,,B,045,yes,ES,Vpav,2020_Feb_19_1054,Pavlovian,3.2.4,59.94441056569209,
CBgreen.png,n,red.png,1,0,3,3,1,0,2,2,0,,,,,,,,,,,,,373.6122757319936,None,0.014005728317897592,1.5113519745136728,111,4,117,4,375.27892368261746,378.27890104224207,2.0113359753158875,None,377.2788956085524,None,378.2622205196667,None,,,,,,,,,,,,,,,,,,,,,,,,,,,,,,B,045,yes,ES,Vpav,2020_Feb_19_1054,Pavlovian,3.2.4,59.94441056569209,
CBgreen.png,n,green.png,2,0,3,3,1,0,3,3,1,,,,,,,,,,,,,379.1289049363868,None,0.010579001927908394,1.5044268574010857,111,4,117,4,380.66224424677876,383.662211946511,2.0044636857446676,3.50447062879266,382.66223609624467,None,383.6455380651114,None,,,,,,,,,,,,,,,,,,,,,,,,,,,,,,B,045,yes,ES,Vpav,2020_Feb_19_1054,Pavlovian,3.2.4,59.94441056569209,
CBgreen.png,n,green.png,2,0,3,3,1,1,0,4,1,,,,,,,,,,,,,384.59539506850433,None,0.009313254037806473,1.5020112803404118,111,4,117,4,386.2123229447225,389.2122719284107,2.002032411356595,3.5019871306067216,388.2122710227959,None,389.19556453925634,None,,,,,,,,,,,,,,,,,,,,,,,,,,,,,,B,045,yes,ES,Vpav,2020_Feb_19_1054,Pavlovian,3.2.4,59.94441056569209,
CBgreen.png,n,red.png,1,0,3,3,1,1,1,5,0,,,,,,,,,,,,,390.09553483508444,None,0.004737332408694783,1.4927364243794727,111,4,117,4,391.7789043628309,394.7788787037389,2.0094057777032504,None,393.7788584783375,None,394.7788787037389,None,,,,,,,,,,,,,,,,,,,,,,,,,,,,,,B,045,yes,ES,Vpav,2020_Feb_19_1054,Pavlovian,3.2.4,59.94441056569209,
CBgreen.png,n,blue.png,3,0,3,3,1,1,2,6,2,,,,,,,,,,,,,395.6289106719487,None,0.0012667440669247299,1.5024850981053532,111,4,117,4,397.31224608819593,400.3121790726864,2.0024829850044625,None,399.3121826951465,None,400.2955139455653,None,,,,,,,,,,,,,,,,,,,,,,,,,,,,,,B,045,yes,ES,Vpav,2020_Feb_19_1054,Pavlovian,3.2.4,59.94441056569209,
CBgreen.png,n,yellow.png,4,0,3,3,1,1,3,7,3,,,,,,,,,,,,,401.11218517049474,None,0.0015866072826611344,1.5031315864625867,111,4,117,4,402.71222574204603,405.71216174525307,2.0031364164096885,3.503126454644189,404.71217321637687,None,405.69552167348047,None,,,,,,,,,,,,,,,,,,,,,,,,,,,,,,B,045,yes,ES,Vpav,2020_Feb_19_1054,Pavlovian,3.2.4,59.94441056569209,
CBgreen.png,n,yellow.png,4,0,3,3,1,2,0,8,3,,,,,,,,,,,,,406.6455151228647,None,0.014782866731366084,1.512860849842582,111,4,117,4,408.2288963028577,411.22888000178773,2.0128617554573793,3.512860849842582,410.2288760774554,None,411.2121608396383,None,,,,,,,,,,,,,,,,,,,,,,,,,,,,,,B,045,yes,ES,Vpav,2020_Feb_19_1054,Pavlovian,3.2.4,59.94441056569209,
CBgreen.png,n,red.png,1,0,3,3,1,2,1,9,0,,,,,,,,,,,,,412.1621615339427,None,0.013203625116148032,1.5097810041816047,111,4,117,4,413.7455445251653,416.74548898077865,2.009779494823306,3.5097674199569155,415.74548686767685,None,416.72885615392624,None,,,,,,,,,,,,,,,,,,,,,,,,,,,,,,B,045,yes,ES,Vpav,2020_Feb_19_1054,Pavlovian,3.2.4,59.94441056569209,
CBgreen.png,n,blue.png,3,0,3,3,1,2,2,10,2,,,,,,,,,,,,,417.6288635799692,None,0.001209358263622562,1.5023619042794962,111,4,117,4,419.312176355842,422.3121443574455,2.0023628098942936,None,421.3121651865904,None,422.2954789284522,None,,,,,,,,,,,,,,,,,,,,,,,,,,,,,,B,045,yes,ES,Vpav,2020_Feb_19_1054,Pavlovian,3.2.4,59.94441056569209,
CBgreen.png,n,green.png,2,0,3,3,1,2,3,11,1,,,,,,,,,,,,,423.11214683279286,None,0.008656109611365537,1.5005828538105561,111,4,117,4,424.71217080140286,427.712127935627,2.000572892045966,3.5005725901737605,426.71216416022617,None,427.6954712609122,None,,,,,,,,,,,,,,,,,,,,,,,,,,,,,,B,045,yes,ES,Vpav,2020_Feb_19_1054,Pavlovian,3.2.4,59.94441056569209,
CBgreen.png,n,,,0,3,3,1,,,,,,,,,,,,,,,,,428.6621394973117,None,,,,,,,,,,,,,,,0.016368960831641743,1.0159058896979332,430.27878391603645,None,431.27878723662525,None,n,1,2.064325833030125,431.27878723662525,None,430.27878391603645,None,159,4,430.27878391603645,None,0.01224889560307929,None,119,4,433.5954545372224,None,,,,,,,B,045,yes,ES,Vpav,2020_Feb_19_1054,Pavlovian,3.2.4,59.94441056569209,
CBgreen.png,n,blue.png,3,1,0,4,1,0,0,0,2,,,,,,,,,,,,,435.8121220189423,None,0.003084313360886881,1.4894810705345662,111,4,117,4,437.478624165552,440.4787699695653,2.006080389633098,None,439.4787494422926,None,440.4787699695653,None,,,,,,,,,,,,,,,,,,,,,,,,,,,,,,B,045,yes,ES,Vpav,2020_Feb_19_1054,Pavlovian,3.2.4,59.94441056569209,
CBgreen.png,n,red.png,1,1,0,4,1,0,1,1,0,,,,,,,,,,,,,441.3287684300203,None,0.01567112410430127,1.5145928385181833,111,4,117,4,443.01213403343445,446.01211773236446,2.014595857234781,None,445.01211290241827,None,445.9954329835855,None,,,,,,,,,,,,,,,,,,,,,,,,,,,,,,B,045,yes,ES,Vpav,2020_Feb_19_1054,Pavlovian,3.2.4,59.94441056569209,
CBgreen.png,n,green.png,2,1,0,4,1,0,2,2,1,,,,,,,,,,,,,446.8454740079442,None,0.006208171907928772,1.495743488779226,111,4,117,4,448.39546787994914,451.3954129393069,2.012408012157721,3.512408012157721,450.39542441042977,None,451.3954129393069,None,,,,,,,,,,,,,,,,,,,,,,,,,,,,,,B,045,yes,ES,Vpav,2020_Feb_19_1054,Pavlovian,3.2.4,59.94441056569209,
CBgreen.png,n,yellow.png,4,1,0,4,1,0,3,3,3,,,,,,,,,,,,,452.31207462509064,None,0.002805233006256458,1.4888047270696916,111,4,117,4,453.91209165065266,456.91207685894096,2.005479212211867,3.5054906833356654,455.91207655706967,None,456.91207685894096,None,,,,,,,,,,,,,,,,,,,,,,,,,,,,,,B,045,yes,ES,Vpav,2020_Feb_19_1054,Pavlovian,3.2.4,59.94441056569209,
CBgreen.png,n,blue.png,3,1,0,4,1,1,0,4,2,,,,,,,,,,,,,457.8621249470971,None,0.013034758108005917,1.5093941858312974,111,4,117,4,459.6121127212946,462.6120659311864,2.009394487703503,None,461.6120719686205,None,462.59539869096443,None,,,,,,,,,,,,,,,,,,,,,,,,,,,,,,B,045,yes,ES,Vpav,2020_Feb_19_1054,Pavlovian,3.2.4,59.94441056569209,
CBgreen.png,n,red.png,1,1,0,4,1,1,1,5,0,,,,,,,,,,,,,463.3287542420521,None,0.0049547101953066885,1.4932040537751163,111,4,117,4,464.9954287573819,467.9953922309105,2.0098725014840966,None,466.9953907215522,None,467.9953922309105,None,,,,,,,,,,,,,,,,,,,,,,,,,,,,,,B,045,yes,ES,Vpav,2020_Feb_19_1054,Pavlovian,3.2.4,59.94441056569209,
CBgreen.png,n,yellow.png,4,1,0,4,1,1,2,6,3,,,,,,,,,,,,,468.8454103130234,None,0.004804498853445693,1.492894756066562,111,4,117,4,470.462113898594,473.4620812964549,2.009680631853371,3.5095952021729317,472.4621603868309,None,473.4620812964549,None,,,,,,,,,,,,,,,,,,,,,,,,,,,,,,B,045,yes,ES,Vpav,2020_Feb_19_1054,Pavlovian,3.2.4,59.94441056569209,
CBgreen.png,n,green.png,2,1,0,4,1,1,3,7,1,,,,,,,,,,,,,474.3621023067226,None,0.0034672073797992198,1.4902376816744436,111,4,117,4,475.8621020048504,478.8621029104661,2.006990955321271,3.5069704280485894,477.8621210227657,None,478.8621029104661,None,,,,,,,,,,,,,,,,,,,,,,,,,,,,,,B,045,yes,ES,Vpav,2020_Feb_19_1054,Pavlovian,3.2.4,59.94441056569209,
CBgreen.png,n,yellow.png,4,1,0,4,1,2,0,8,3,,,,,,,,,,,,,479.82871771558075,None,0.0038874429246789077,1.4910829525233567,111,4,117,4,481.3953842614983,484.39542682540286,2.0077619657404284,3.507755324563732,483.3953637342256,None,484.39542682540286,None,,,,,,,,,,,,,,,,,,,,,,,,,,,,,,B,045,yes,ES,Vpav,2020_Feb_19_1054,Pavlovian,3.2.4,59.94441056569209,
CBgreen.png,n,green.png,2,1,0,4,1,2,1,9,1,,,,,,,,,,,,,485.3621276639424,None,0.011522381068061804,1.506287020786658,111,4,117,4,486.92872266627546,489.9286843285745,2.006248683085687,3.506245362496884,488.9286897622642,None,489.9120170883516,None,,,,,,,,,,,,,,,,,,,,,,,,,,,,,,B,045,yes,ES,Vpav,2020_Feb_19_1054,Pavlovian,3.2.4,59.94441056569209,
CBgreen.png,n,blue.png,3,1,0,4,1,2,2,10,2,,,,,,,,,,,,,490.82871590435025,None,9.330853208666667e-05,1.500151871635353,111,4,117,4,492.54542142190076,495.5453384071925,2.0001355705653623,None,494.5453444446257,None,495.5286781100176,None,,,,,,,,,,,,,,,,,,,,,,,,,,,,,,B,045,yes,ES,Vpav,2020_Feb_19_1054,Pavlovian,3.2.4,59.94441056569209,
CBgreen.png,n,red.png,1,1,0,4,1,2,3,11,0,,,,,,,,,,,,,496.34535205179145,None,0.015050204277031298,1.5134505863261438,111,4,117,4,497.9954061170074,500.995368383049,2.013447869480842,None,499.9953701942786,None,500.97871684015263,None,,,,,,,,,,,,,,,,,,,,,,,,,,,,,,B,045,yes,ES,Vpav,2020_Feb_19_1054,Pavlovian,3.2.4,59.94441056569209,
CBgreen.png,n,,,1,0,4,1,,,,,,,,,,,,,,,,,501.9120050134852,None,,,,,,,,,,,,,,,0.01641122286400787,1.0160589386314314,503.512054339315,None,504.51199185188034,None,n,1,1.6666452337785813,504.51199185188034,None,503.512054339315,None,159,4,503.512054339315,None,0.011416937294598029,None,119,4,506.4286438777708,None,,,,,,,B,045,yes,ES,Vpav,2020_Feb_19_1054,Pavlovian,3.2.4,59.94441056569209,
CByellow.png,k,yellow.png,4,1,1,5,3,0,0,0,3,,,,,,,,,,,,,508.6453352073531,None,0.0010616524587021559,1.5021136752102393,111,4,117,4,510.21205578829904,513.2119791128962,2.002133598740329,3.5021133733389433,512.2119661324141,None,513.1953426635828,None,,,,,,,,,,,,,,,,,,,,,,,,,,,,,,B,045,yes,ES,Vpav,2020_Feb_19_1054,Pavlovian,3.2.4,59.94441056569209,
CByellow.png,k,blue.png,3,1,1,5,3,0,1,1,2,,,,,,,,,,,,,514.19531851385,None,0.01419373399039614,1.5117060096017667,111,4,117,4,515.8120045908645,518.8119581026285,2.0117057077304707,3.5117223106717574,517.8119916103833,None,518.795311087807,None,,,,,,,,,,,,,,,,,,,,,,,,,,,,,,B,045,yes,ES,Vpav,2020_Feb_19_1054,Pavlovian,3.2.4,59.94441056569209,
CByellow.png,k,green.png,2,1,1,5,3,0,2,2,1,,,,,,,,,,,,,519.678687196355,None,0.005641860665491549,1.4944626473070457,111,4,117,4,521.2787280697785,524.2786876189757,2.0111866394026947,3.511181205713001,523.2786933545367,None,524.2786876189757,None,,,,,,,,,,,,,,,,,,,,,,,,,,,,,,B,045,yes,ES,Vpav,2020_Feb_19_1054,Pavlovian,3.2.4,59.94441056569209,
CByellow.png,k,red.png,1,1,1,5,3,0,3,3,0,,,,,,,,,,,,,525.1619912783244,None,0.009276274759031367,1.5018438925026203,111,4,117,4,526.8286543225313,529.8286654917829,2.001899738760585,None,528.8286310784124,None,529.8119837617196,None,,,,,,,,,,,,,,,,,,,,,,,,,,,,,,B,045,yes,ES,Vpav,2020_Feb_19_1054,Pavlovian,3.2.4,59.94441056569209,
CByellow.png,k,red.png,1,1,1,5,3,1,0,4,0,,,,,,,,,,,,,530.678657009189,None,0.016663980009070656,1.516672432415362,111,4,117,4,532.3453028467102,535.3452741689025,1.9999565908547083,None,534.3452762820043,None,535.3119402922002,None,,,,,,,,,,,,,,,,,,,,,,,,,,,,,,B,045,yes,ES,Vpav,2020_Feb_19_1054,Pavlovian,3.2.4,59.94441056569209,
CByellow.png,k,blue.png,3,1,1,5,3,1,1,5,2,,,,,,,,,,,,,536.178589389936,None,0.010985441937009455,1.505288519880196,111,4,117,4,537.8619821617995,540.8619163537769,2.005288519880196,None,539.861936277307,None,540.8452406611477,None,,,,,,,,,,,,,,,,,,,,,,,,,,,,,,B,045,yes,ES,Vpav,2020_Feb_19_1054,Pavlovian,3.2.4,59.94441056569209,
CByellow.png,k,yellow.png,4,1,1,5,3,1,2,6,3,,,,,,,,,,,,,541.6619858446338,None,0.015683953650295734,1.514639175818047,111,4,117,4,543.1953272681285,546.1952919491432,2.0146431001503515,3.5146603068351396,545.1952925528867,None,546.1785806356575,None,,,,,,,,,,,,,,,,,,,,,,,,,,,,,,B,045,yes,ES,Vpav,2020_Feb_19_1054,Pavlovian,3.2.4,59.94441056569209,
CByellow.png,k,green.png,2,1,1,5,3,1,3,7,1,,,,,,,,,,,,,547.195287119197,None,0.010393320667390071,1.5041509165130265,111,4,117,4,548.7119643211845,551.7119117955144,2.004164500738625,3.5041838205252134,550.7119148142319,None,551.6953970004824,None,,,,,,,,,,,,,,,,,,,,,,,,,,,,,,B,045,yes,ES,Vpav,2020_Feb_19_1054,Pavlovian,3.2.4,59.94441056569209,
CByellow.png,k,yellow.png,4,1,1,5,3,2,0,8,3,,,,,,,,,,,,,552.6619164141512,None,0.0029941744805910275,1.489209808655687,111,4,117,4,554.278418953194,557.2785686815396,2.00587735074987,3.505884595670068,556.2785490598817,None,557.2785686815396,None,,,,,,,,,,,,,,,,,,,,,,,,,,,,,,B,045,yes,ES,Vpav,2020_Feb_19_1054,Pavlovian,3.2.4,59.94441056569209,
CByellow.png,k,red.png,1,1,1,5,3,2,1,9,0,,,,,,,,,,,,,558.1953200232083,None,0.013137786906554538,1.5095829461834,111,4,117,4,559.8785878202034,562.8785549161921,2.009569663830007,None,561.8785509918598,None,562.861913033189,None,,,,,,,,,,,,,,,,,,,,,,,,,,,,,,B,045,yes,ES,Vpav,2020_Feb_19_1054,Pavlovian,3.2.4,59.94441056569209,
CByellow.png,k,green.png,2,1,1,5,3,2,2,10,1,,,,,,,,,,,,,563.6785646364597,None,0.010456411844643299,1.5041774812189033,111,4,117,4,565.2785907181715,568.2785520785983,2.00417627373281,3.5041789905781116,567.2785560029297,None,568.2618778953265,None,,,,,,,,,,,,,,,,,,,,,,,,,,,,,,B,045,yes,ES,Vpav,2020_Feb_19_1054,Pavlovian,3.2.4,59.94441056569209,
CByellow.png,k,blue.png,3,1,1,5,3,2,3,11,2,,,,,,,,,,,,,569.1618804914233,None,0.012092707203919417,1.507499126082621,111,4,117,4,570.8452391517894,573.84519205981,2.0075392750140963,None,572.8451993047292,None,573.8285770433849,None,,,,,,,,,,,,,,,,,,,,,,,,,,,,,,B,045,yes,ES,Vpav,2020_Feb_19_1054,Pavlovian,3.2.4,59.94441056569209,
CByellow.png,k,,,1,1,5,3,,,,,,,,,,,,,,,,,574.7285434148816,None,,,,,,,,,,,,,,,0.016365036499337293,1.0159961493245646,576.3285408187849,None,577.3285236121001,None,k,1,3.1206460295125,577.3285236121001,None,576.3285408187849,None,159,4,576.3285408187849,None,0.01058045091212989,None,119,4,580.7119151161032,None,,,,,,,B,045,yes,ES,Vpav,2020_Feb_19_1054,Pavlovian,3.2.4,59.94441056569209,
CBred.png,b,red.png,1,1,2,6,0,0,0,0,0,,,,,,,,,,,,,582.9952195603182,None,0.014404802657736582,1.51211601169598,111,4,117,4,584.5452076967622,587.545160906654,2.012115709824684,3.5121845365638364,586.5451941125366,None,587.5285099675011,None,,,,,,,,,,,,,,,,,,,,,,,,,,,,,,B,045,yes,ES,Vpav,2020_Feb_19_1054,Pavlovian,3.2.4,59.94441056569209,
CBred.png,b,green.png,2,1,2,6,0,0,1,1,1,,,,,,,,,,,,,588.4618488552724,None,0.004633035749066039,1.49258835632736,111,4,117,4,590.0618592396577,593.0618290524917,2.009261332112146,3.5092646527000397,592.0618326749518,None,593.0618290524917,None,,,,,,,,,,,,,,,,,,,,,,,,,,,,,,B,045,yes,ES,Vpav,2020_Feb_19_1054,Pavlovian,3.2.4,59.94441056569209,
CBred.png,b,blue.png,3,1,2,6,0,0,2,2,2,,,,,,,,,,,,,593.9451807094347,None,0.005308473598233832,1.4939617214649843,111,4,117,4,595.6118600547115,598.6118238301115,2.010626244843479,None,597.6118196039088,None,598.6118238301115,None,,,,,,,,,,,,,,,,,,,,,,,,,,,,,,B,045,yes,ES,Vpav,2020_Feb_19_1054,Pavlovian,3.2.4,59.94441056569209,
CBred.png,b,yellow.png,4,1,2,6,0,0,3,3,3,,,,,,,,,,,,,599.4452063685267,None,0.01343199103121151,1.5101581928274754,111,4,117,4,601.0285250610841,604.0285160049343,2.010150947908187,3.510144004859285,603.0285205330092,None,604.0118215962611,None,,,,,,,,,,,,,,,,,,,,,,,,,,,,,,B,045,yes,ES,Vpav,2020_Feb_19_1054,Pavlovian,3.2.4,59.94441056569209,
CBred.png,b,red.png,1,1,2,6,0,1,0,4,0,,,,,,,,,,,,,604.9785025112706,None,0.014478459343990835,1.5122403828218012,111,4,117,4,606.6286018572355,609.6285037489442,2.012242194051396,None,608.6283177959995,None,609.611801189737,None,,,,,,,,,,,,,,,,,,,,,,,,,,,,,,B,045,yes,ES,Vpav,2020_Feb_19_1054,Pavlovian,3.2.4,59.94441056569209,
CBred.png,b,blue.png,3,1,2,6,0,1,1,5,2,,,,,,,,,,,,,610.4618129325445,None,0.004034243115711433,1.49144377972425,111,4,117,4,612.1618249470366,615.161786911207,2.008068757913861,None,614.1618143815285,None,615.161786911207,None,,,,,,,,,,,,,,,,,,,,,,,,,,,,,,B,045,yes,ES,Vpav,2020_Feb_19_1054,Pavlovian,3.2.4,59.94441056569209,
CBred.png,b,yellow.png,4,1,2,6,0,1,2,6,3,,,,,,,,,,,,,615.9451375417866,None,0.0009885693289106712,1.5019560680138966,111,4,117,4,617.4784650791844,620.4784499856014,2.0019258808470113,3.501937955714311,619.4784282508408,None,620.4617761042018,None,,,,,,,,,,,,,,,,,,,,,,,,,,,,,,B,045,yes,ES,Vpav,2020_Feb_19_1054,Pavlovian,3.2.4,59.94441056569209,
CBred.png,b,green.png,2,1,2,6,0,1,3,7,1,,,,,,,,,,,,,621.4784487781144,None,0.0003183840453857556,1.5006069733572076,111,4,117,4,622.9952086929379,625.995099415396,2.0006235762984943,3.5006139164052,624.9951573747549,None,625.9784345901462,None,,,,,,,,,,,,,,,,,,,,,,,,,,,,,,B,045,yes,ES,Vpav,2020_Feb_19_1054,Pavlovian,3.2.4,59.94441056569209,
CBred.png,b,yellow.png,4,1,2,6,0,2,0,8,3,,,,,,,,,,,,,626.9451541447288,None,0.006765819433894649,1.4967907721456868,111,4,117,4,628.4951274894602,631.4950752656623,2.013473709695063,3.5134652572887717,630.4950939817054,None,631.4950752656623,None,,,,,,,,,,,,,,,,,,,,,,,,,,,,,,B,045,yes,ES,Vpav,2020_Feb_19_1054,Pavlovian,3.2.4,59.94441056569209,
CBred.png,b,red.png,1,1,2,6,0,2,1,9,0,,,,,,,,,,,,,632.478476248436,None,0.007564692607957113,1.4984599413292017,111,4,117,4,634.1284536382482,637.1284125837019,2.0151235590919896,None,636.128416206162,None,637.1284125837019,None,,,,,,,,,,,,,,,,,,,,,,,,,,,,,,B,045,yes,ES,Vpav,2020_Feb_19_1054,Pavlovian,3.2.4,59.94441056569209,
CBred.png,b,green.png,2,1,2,6,0,2,2,10,1,,,,,,,,,,,,,637.9617489357515,None,0.0011436709892223007,1.5023448183428627,111,4,117,4,639.5784332015364,642.5784033162417,2.002309499358489,3.5023267060432772,641.5784063349583,None,642.5617469433992,None,,,,,,,,,,,,,,,,,,,,,,,,,,,,,,B,045,yes,ES,Vpav,2020_Feb_19_1054,Pavlovian,3.2.4,59.94441056569209,
CBred.png,b,blue.png,3,1,2,6,0,2,3,11,2,,,,,,,,,,,,,643.4451245613054,None,0.0065772100188041804,1.4964035311750195,111,4,117,4,645.1451398963854,648.1451305383644,2.01317008717524,None,647.1451734041402,None,648.1451305383644,None,,,,,,,,,,,,,,,,,,,,,,,,,,,,,,B,045,yes,ES,Vpav,2020_Feb_19_1054,Pavlovian,3.2.4,59.94441056569209,
CBred.png,b,,,1,2,6,0,,,,,,,,,,,,,,,,,649.0284076330063,None,,,,,,,,,,,,,,,0.016476125272674835,1.016256362700915,650.6117477584521,None,651.6117224012323,None,b,1,2.96209880501101,651.6117224012323,None,650.6117477584521,None,159,4,650.6117477584521,None,0.011083369105108432,None,119,4,654.8283723743962,None,,,,,,,B,045,yes,ES,Vpav,2020_Feb_19_1054,Pavlovian,3.2.4,59.94441056569209,
CBblue.png,s,yellow.png,4,1,3,7,2,0,0,0,3,,,,,,,,,,,,,657.0617556976767,None,0.0022802479934398434,1.5044977972429479,111,4,117,4,658.6617847981051,661.6617573277845,2.004321504190557,3.5044805905581597,660.6617443473024,None,661.645036958148,None,,,,,,,,,,,,,,,,,,,,,,,,,,,,,,B,045,yes,ES,Vpav,2020_Feb_19_1054,Pavlovian,3.2.4,59.94441056569209,
CBblue.png,s,red.png,1,1,3,7,2,0,1,1,0,,,,,,,,,,,,,662.5950301056619,None,0.01542784573030076,1.514021425644387,111,4,117,4,664.1617814775173,667.1617313668212,2.0141518342034033,3.5141524379469047,666.161717178853,None,667.1450263926399,None,,,,,,,,,,,,,,,,,,,,,,,,,,,,,,B,045,yes,ES,Vpav,2020_Feb_19_1054,Pavlovian,3.2.4,59.94441056569209,
CBblue.png,s,green.png,2,1,3,7,2,0,2,2,1,,,,,,,,,,,,,668.0950301056619,None,0.002231374972325284,1.5044815263609053,111,4,117,4,669.5950542553946,672.5950147102067,2.0044483204774224,3.5044821301044067,671.5950168233085,None,672.5783492812134,None,,,,,,,,,,,,,,,,,,,,,,,,,,,,,,B,045,yes,ES,Vpav,2020_Feb_19_1054,Pavlovian,3.2.4,59.94441056569209,
CBblue.png,s,blue.png,3,1,3,7,2,0,3,3,2,,,,,,,,,,,,,673.5617092094408,None,0.011823739550891332,1.5069297961226766,111,4,117,4,675.2784156326052,678.2783588807324,2.006943984090867,None,677.278378200519,None,678.2617160921145,None,,,,,,,,,,,,,,,,,,,,,,,,,,,,,,B,045,yes,ES,Vpav,2020_Feb_19_1054,Pavlovian,3.2.4,59.94441056569209,
CBblue.png,s,green.png,2,1,3,7,2,1,0,4,1,,,,,,,,,,,,,679.0784072405731,None,0.013304601187883236,1.5099601650144905,111,4,117,4,680.6783708348503,683.6783415532991,2.0099511088646977,3.5099538257099994,682.678322837256,None,683.6617437435589,None,,,,,,,,,,,,,,,,,,,,,,,,,,,,,,B,045,yes,ES,Vpav,2020_Feb_19_1054,Pavlovian,3.2.4,59.94441056569209,
CBblue.png,s,red.png,1,1,3,7,2,1,1,5,0,,,,,,,,,,,,,684.5617393966068,None,0.014579918411072867,1.512465005528611,111,4,117,4,686.1450559760633,689.1449750744569,2.0124683261165046,3.5124734579349024,688.1449847343501,None,689.1282990799555,None,,,,,,,,,,,,,,,,,,,,,,,,,,,,,,B,045,yes,ES,Vpav,2020_Feb_19_1054,Pavlovian,3.2.4,59.94441056569209,
CBblue.png,s,yellow.png,4,1,3,7,2,1,2,6,3,,,,,,,,,,,,,690.0950301056619,None,0.015546903913673304,1.5144722407876543,111,4,117,4,691.5950618021861,694.5949778818631,2.014474052017249,3.5144758632477533,693.5949884473721,None,694.5783483755986,None,,,,,,,,,,,,,,,,,,,,,,,,,,,,,,B,045,yes,ES,Vpav,2020_Feb_19_1054,Pavlovian,3.2.4,59.94441056569209,
CBblue.png,s,blue.png,3,1,3,7,2,1,3,7,2,,,,,,,,,,,,,695.594968523842,None,0.009091529300349066,1.5014620248475694,111,4,117,4,697.1783306859188,700.178339138326,2.0014587042587664,3.5014632323336627,699.1783385345825,None,700.1616329566577,None,,,,,,,,,,,,,,,,,,,,,,,,,,,,,,B,045,yes,ES,Vpav,2020_Feb_19_1054,Pavlovian,3.2.4,59.94441056569209,
CBblue.png,s,blue.png,3,1,3,7,2,2,0,8,2,,,,,,,,,,,,,701.078344149395,None,0.013392264721005631,1.5100173395094316,111,4,117,4,702.7616602458565,705.761632775535,2.0100345461942197,None,704.7616306624332,None,705.7449588941354,None,,,,,,,,,,,,,,,,,,,,,,,,,,,,,,B,045,yes,ES,Vpav,2020_Feb_19_1054,Pavlovian,3.2.4,59.94441056569209,
CBblue.png,s,red.png,1,1,3,7,2,2,1,9,0,,,,,,,,,,,,,706.6282948537528,None,0.005482653548824601,1.4943007233450771,111,4,117,4,708.1949770969968,711.194943589242,2.0109429082194765,3.510983359022248,710.1949472117021,None,711.194943589242,None,,,,,,,,,,,,,,,,,,,,,,,,,,,,,,B,045,yes,ES,Vpav,2020_Feb_19_1054,Pavlovian,3.2.4,59.94441056569209,
CBblue.png,s,yellow.png,4,1,3,7,2,2,2,10,3,,,,,,,,,,,,,712.0783242258658,None,0.013761966948550253,1.5107888329230263,111,4,117,4,713.6449783950457,716.6449983185748,2.0107821917463298,3.510769815007734,715.6449364348837,None,716.6282731189931,None,,,,,,,,,,,,,,,,,,,,,,,,,,,,,,B,045,yes,ES,Vpav,2020_Feb_19_1054,Pavlovian,3.2.4,59.94441056569209,
CBblue.png,s,green.png,2,1,3,7,2,2,3,11,1,,,,,,,,,,,,,717.594968523842,None,0.009332875695690745,1.5020764846203747,111,4,117,4,719.0949585620765,722.0949655051254,2.002042976865596,3.50197656509863,721.0949470909536,None,722.0782852844204,None,,,,,,,,,,,,,,,,,,,,,,,,,,,,,,B,045,yes,ES,Vpav,2020_Feb_19_1054,Pavlovian,3.2.4,59.94441056569209,
CBblue.png,s,,,1,3,7,2,,,,,,,,,,,,,,,,,723.1449337180393,None,,,,,,,,,,,,,,,0.01651114238484297,1.0163040584229748,724.7282792771748,None,725.7282493918801,None,s,1,3.5359332936068313,725.7282493918801,None,724.7282792771748,None,159,4,724.7282792771748,None,0.011864311101817293,None,119,4,729.5282334530557,None,,,,,,,B,045,yes,ES,Vpav,2020_Feb_19_1054,Pavlovian,3.2.4,59.94441056569209,
CBred.png,b,yellow.png,4,2,0,8,0,0,0,0,3,,,,,,,,,,,,,731.7615778348918,None,0.013356885361645254,1.5100109398299537,111,4,117,4,733.3449200734394,736.3449460344027,2.0100082229855616,3.5100024874236624,735.3448995461667,None,736.3282298909699,None,,,,,,,,,,,,,,,,,,,,,,,,,,,,,,B,045,yes,ES,Vpav,2020_Feb_19_1054,Pavlovian,3.2.4,59.94441056569209,
CBred.png,b,blue.png,3,2,0,8,0,0,1,1,2,,,,,,,,,,,,,737.2949627279058,None,0.003407044356208644,1.490084844050216,111,4,117,4,738.8780776570902,741.8782246685905,2.0067795545946865,3.506782573311284,740.878233422869,None,741.8782246685905,None,,,,,,,,,,,,,,,,,,,,,,,,,,,,,,B,045,yes,ES,Vpav,2020_Feb_19_1054,Pavlovian,3.2.4,59.94441056569209,
CBred.png,b,green.png,2,2,0,8,0,0,2,2,1,,,,,,,,,,,,,742.7782704323345,None,0.015519463779128273,1.5143065434303935,111,4,117,4,744.361602105374,747.3615559190093,2.0142905442316987,3.514309864018287,746.3615378067097,None,747.3448750945618,None,,,,,,,,,,,,,,,,,,,,,,,,,,,,,,B,045,yes,ES,Vpav,2020_Feb_19_1054,Pavlovian,3.2.4,59.94441056569209,
CBred.png,b,red.png,1,2,0,8,0,0,3,3,0,,,,,,,,,,,,,748.2615660618976,None,0.012487072346630157,1.5082826038005805,111,4,117,4,749.8283159243947,752.8282072505954,2.0082807925700763,3.5082792832117775,751.8282413620936,None,752.8115846873789,None,,,,,,,,,,,,,,,,,,,,,,,,,,,,,,B,045,yes,ES,Vpav,2020_Feb_19_1054,Pavlovian,3.2.4,59.94441056569209,
CBred.png,b,green.png,2,2,0,8,0,1,0,4,1,,,,,,,,,,,,,753.7949062779044,None,0.005027008458455384,1.4933436694191187,111,4,117,4,755.3115822724058,758.3115668769506,2.0100456248837872,3.5100269088407003,757.3115677825654,None,758.3115668769506,None,,,,,,,,,,,,,,,,,,,,,,,,,,,,,,B,045,yes,ES,Vpav,2020_Feb_19_1054,Pavlovian,3.2.4,59.94441056569209,
CBred.png,b,red.png,1,2,0,8,0,1,1,5,0,,,,,,,,,,,,,759.2448671251495,None,0.013633550743179512,1.5106555867705538,111,4,117,4,760.8449695803929,763.8448482279837,2.010614834095577,3.510592495592391,762.844849737342,None,763.8281906476541,None,,,,,,,,,,,,,,,,,,,,,,,,,,,,,,B,045,yes,ES,Vpav,2020_Feb_19_1054,Pavlovian,3.2.4,59.94441056569209,
CBred.png,b,yellow.png,4,2,0,8,0,1,2,6,3,,,,,,,,,,,,,764.7948519410047,None,0.00267425089077733,1.5053126092407183,111,4,117,4,766.3115946491444,769.3115448403196,2.005308684908414,3.5052941950689274,768.3115689900524,None,769.2948362436782,None,,,,,,,,,,,,,,,,,,,,,,,,,,,,,,B,045,yes,ES,Vpav,2020_Feb_19_1054,Pavlovian,3.2.4,59.94441056569209,
CBred.png,b,blue.png,3,2,0,8,0,1,3,7,2,,,,,,,,,,,,,770.2948459035715,None,0.010359420479289838,1.5040521139171688,111,4,117,4,771.8948614197752,774.8948559860855,2.0040152855744964,3.5040336997462873,773.8948363644267,None,774.878164596129,None,,,,,,,,,,,,,,,,,,,,,,,,,,,,,,B,045,yes,ES,Vpav,2020_Feb_19_1054,Pavlovian,3.2.4,59.94441056569209,
CBred.png,b,green.png,2,2,0,8,0,2,0,8,1,,,,,,,,,,,,,775.7615162530728,None,0.0007060174493744853,1.5014573760226995,111,4,117,4,777.3282431733232,780.3281876289375,2.0014552629208993,3.501456470407902,779.3282000056752,None,780.3115517833676,None,,,,,,,,,,,,,,,,,,,,,,,,,,,,,,B,045,yes,ES,Vpav,2020_Feb_19_1054,Pavlovian,3.2.4,59.94441056569209,
CBred.png,b,blue.png,3,2,0,8,0,2,1,9,2,,,,,,,,,,,,,781.2614601049427,None,0.0016477362960358732,1.5032186764392463,111,4,117,4,782.8781956889106,785.8781630867707,2.0032198839253397,3.5032346756370316,784.8781292771446,None,785.8614774323769,None,,,,,,,,,,,,,,,,,,,,,,,,,,,,,,B,045,yes,ES,Vpav,2020_Feb_19_1054,Pavlovian,3.2.4,59.94441056569209,
CBred.png,b,red.png,1,2,0,8,0,2,2,10,0,,,,,,,,,,,,,786.761486065906,None,0.012127543194765167,1.5075955438924211,111,4,117,4,788.3448267950953,791.3448352475016,2.0075828652825294,3.5075738091327366,790.3448376624756,None,791.3281698185092,None,,,,,,,,,,,,,,,,,,,,,,,,,,,,,,B,045,yes,ES,Vpav,2020_Feb_19_1054,Pavlovian,3.2.4,59.94441056569209,
CBred.png,b,yellow.png,4,2,0,8,0,2,3,11,3,,,,,,,,,,,,,792.2781357975728,None,0.012412902478899923,1.5081942459646598,111,4,117,4,793.8114911071625,796.8114473357718,2.0081574176219874,3.5081559082636886,795.8114618256113,None,796.7947731525,None,,,,,,,,,,,,,,,,,,,,,,,,,,,,,,B,045,yes,ES,Vpav,2020_Feb_19_1054,Pavlovian,3.2.4,59.94441056569209,
CBred.png,b,,,2,0,8,0,,,,,,,,,,,,,,,,,797.8781301827594,None,,,,,,,,,,,,,,,0.016509934898749634,1.0163230763382671,799.3947934986509,None,800.3947811219123,None,b,1,2.3639228947313313,800.3947811219123,None,799.3947934986509,None,159,4,799.3947934986509,None,0.012200596135699016,None,119,4,803.0114469735254,None,,,,,,,B,045,yes,ES,Vpav,2020_Feb_19_1054,Pavlovian,3.2.4,59.94441056569209,
CByellow.png,k,red.png,1,2,1,9,3,0,0,0,0,,,,,,,,,,,,,805.2281434349252,None,0.013960507942101685,1.5112282675054303,111,4,117,4,806.8114772210665,809.8114412983387,2.0112288712489317,3.5112291731202276,808.8114304309584,None,809.7947647000938,None,,,,,,,,,,,,,,,,,,,,,,,,,,,,,,B,045,yes,ES,Vpav,2020_Feb_19_1054,Pavlovian,3.2.4,59.94441056569209,
CByellow.png,k,green.png,2,2,1,9,3,0,1,1,1,,,,,,,,,,,,,810.761430219648,None,0.00973315752344206,1.5027378854374547,111,4,117,4,812.3114787304248,815.3114204691938,2.002718867523072,3.5026923028162855,814.3114231860382,None,815.2947598701476,None,,,,,,,,,,,,,,,,,,,,,,,,,,,,,,B,045,yes,ES,Vpav,2020_Feb_19_1054,Pavlovian,3.2.4,59.94441056569209,
CByellow.png,k,yellow.png,4,2,1,9,3,0,2,2,3,,,,,,,,,,,,,816.2447922609772,None,0.011213294670596952,1.5057768878605202,111,4,117,4,817.7614293140332,820.7614112017336,2.005794094546218,3.5057678317107275,819.7614096923753,None,820.7447871291588,None,,,,,,,,,,,,,,,,,,,,,,,,,,,,,,B,045,yes,ES,Vpav,2020_Feb_19_1054,Pavlovian,3.2.4,59.94441056569209,
CByellow.png,k,blue.png,3,2,1,9,3,0,3,3,2,,,,,,,,,,,,,821.7780974598709,None,0.014400002899492392,1.5120227635397896,111,4,117,4,823.3781298808881,826.3780649784803,2.012084043487448,3.512030612203489,825.3780698084265,None,826.3614372834454,None,,,,,,,,,,,,,,,,,,,,,,,,,,,,,,B,045,yes,ES,Vpav,2020_Feb_19_1054,Pavlovian,3.2.4,59.94441056569209,
CByellow.png,k,red.png,1,2,1,9,3,1,0,4,0,,,,,,,,,,,,,827.2447656962704,None,0.005907809601922054,1.4951234443806243,111,4,117,4,828.794747493409,831.7947221361892,2.0117967220367063,3.5117894771165084,830.7947290792372,None,831.7947221361892,None,,,,,,,,,,,,,,,,,,,,,,,,,,,,,,B,045,yes,ES,Vpav,2020_Feb_19_1054,Pavlovian,3.2.4,59.94441056569209,
CByellow.png,k,yellow.png,4,2,1,9,3,1,1,5,3,,,,,,,,,,,,,832.7947354185426,None,0.0007220770230560447,1.5013786478930342,111,4,117,4,834.3114364683915,837.3113809240049,2.001375931048642,3.50136898799974,836.3113866595668,None,837.294723041804,None,,,,,,,,,,,,,,,,,,,,,,,,,,,,,,B,045,yes,ES,Vpav,2020_Feb_19_1054,Pavlovian,3.2.4,59.94441056569209,
CByellow.png,k,blue.png,3,2,1,9,3,1,2,6,2,,,,,,,,,,,,,838.261389466973,None,0.0005169552259758348,1.5010624373244355,111,4,117,4,839.8614330572418,842.8613663436035,2.0010893039025177,3.5011213022989978,841.8613542687372,None,842.8448029472338,None,,,,,,,,,,,,,,,,,,,,,,,,,,,,,,B,045,yes,ES,Vpav,2020_Feb_19_1054,Pavlovian,3.2.4,59.94441056569209,
CByellow.png,k,green.png,2,2,1,9,3,1,3,7,1,,,,,,,,,,,,,843.7448103732768,None,0.00764876386620017,1.4986668743549671,111,4,117,4,845.278061537143,848.2780316518483,2.0152894375714823,3.5152843057530845,847.2780346705649,None,848.2780316518483,None,,,,,,,,,,,,,,,,,,,,,,,,,,,,,,B,045,yes,ES,Vpav,2020_Feb_19_1054,Pavlovian,3.2.4,59.94441056569209,
CByellow.png,k,blue.png,3,2,1,9,3,2,0,8,2,,,,,,,,,,,,,849.2446681917227,None,0.011077573169131938,1.505456119029077,111,4,117,4,850.86141464307,853.8613917008233,2.005441025446089,3.5054026877442084,852.8613938139251,None,853.8447060464296,None,,,,,,,,,,,,,,,,,,,,,,,,,,,,,,B,045,yes,ES,Vpav,2020_Feb_19_1054,Pavlovian,3.2.4,59.94441056569209,
CByellow.png,k,green.png,2,2,1,9,3,2,1,9,1,,,,,,,,,,,,,854.7446935489425,None,0.014783198788791196,1.5128750679959921,111,4,117,4,856.2780769325982,859.2780108227034,2.0128741623811948,3.512872653022896,858.2780075021146,None,859.2613773921066,None,,,,,,,,,,,,,,,,,,,,,,,,,,,,,,B,045,yes,ES,Vpav,2020_Feb_19_1054,Pavlovian,3.2.4,59.94441056569209,
CByellow.png,k,yellow.png,4,2,1,9,3,2,2,10,3,,,,,,,,,,,,,860.2280075926765,None,0.01575854613838601,1.5148405544059642,111,4,117,4,861.7614338421081,864.7613846370268,2.014838441304164,3.514842063764263,863.7613722602882,None,864.7446621542895,None,,,,,,,,,,,,,,,,,,,,,,,,,,,,,,B,045,yes,ES,Vpav,2020_Feb_19_1054,Pavlovian,3.2.4,59.94441056569209,
CByellow.png,k,red.png,1,2,1,9,3,2,3,11,0,,,,,,,,,,,,,865.7614202578834,None,0.015481307202207972,1.5142499726816823,111,4,117,4,867.3614393965472,870.3613557780955,2.0142466520937887,3.514230351023798,869.3613636267592,None,870.3446520114012,None,,,,,,,,,,,,,,,,,,,,,,,,,,,,,,B,045,yes,ES,Vpav,2020_Feb_19_1054,Pavlovian,3.2.4,59.94441056569209,
CByellow.png,k,,,2,1,9,3,,,,,,,,,,,,,,,,,871.3446574450918,None,,,,,,,,,,,,,,,0.01642209024521435,1.0161606693836802,872.8780055097623,None,873.8780154715269,None,k,1,3.446225487266929,873.8780154715269,None,872.8780055097623,None,159,4,872.8780055097623,None,0.010704822037041595,None,119,4,877.5779988082113,None,,,,,,,B,045,yes,ES,Vpav,2020_Feb_19_1054,Pavlovian,3.2.4,59.94441056569209,
CBblue.png,s,blue.png,3,2,2,10,2,0,0,0,2,,,,,,,,,,,,,879.7946445551715,None,0.006903321977915766,1.4970906816452043,111,4,117,4,881.3946636938344,884.3946253561335,2.013721395396715,3.5137096224016204,883.3946313935667,None,884.3946253561335,None,,,,,,,,,,,,,,,,,,,,,,,,,,,,,,B,045,yes,ES,Vpav,2020_Feb_19_1054,Pavlovian,3.2.4,59.94441056569209,
CBblue.png,s,yellow.png,4,2,2,10,2,0,1,1,3,,,,,,,,,,,,,885.3113039467307,None,0.0010314652918168576,1.5020306605019869,111,4,117,4,886.8446399365348,889.8446136737002,2.0020261324270905,3.502023415581789,888.8446188055186,None,889.8279591120872,None,,,,,,,,,,,,,,,,,,,,,,,,,,,,,,B,045,yes,ES,Vpav,2020_Feb_19_1054,Pavlovian,3.2.4,59.94441056569209,
CBblue.png,s,red.png,1,2,2,10,2,0,2,2,0,,,,,,,,,,,,,890.8446438608662,None,0.012652498018724145,1.5086614527399433,111,4,117,4,892.4279963630506,895.427926932568,2.0086200963223746,3.508605002738477,894.4279414224075,None,895.4112799177465,None,,,,,,,,,,,,,,,,,,,,,,,,,,,,,,B,045,yes,ES,Vpav,2020_Feb_19_1054,Pavlovian,3.2.4,59.94441056569209,
CBblue.png,s,green.png,2,2,2,10,2,0,3,3,1,,,,,,,,,,,,,896.3279461316051,None,0.01649447907038848,1.5162804520596183,111,4,117,4,897.894642260947,900.8946063382182,1.9995836284133475,3.4996424933888193,899.8945954708388,None,900.8613280059026,None,,,,,,,,,,,,,,,,,,,,,,,,,,,,,,B,045,yes,ES,Vpav,2020_Feb_19_1054,Pavlovian,3.2.4,59.94441056569209,
CBblue.png,s,yellow.png,4,2,2,10,2,1,0,4,3,,,,,,,,,,,,,901.8112897587625,None,0.009493199738244584,1.5022446573257184,111,4,117,4,903.3613056673994,906.3612800083074,2.0022337899454214,3.5022356011759257,905.361259782906,None,906.3446009950903,None,,,,,,,,,,,,,,,,,,,,,,,,,,,,,,B,045,yes,ES,Vpav,2020_Feb_19_1054,Pavlovian,3.2.4,59.94441056569209,
CBblue.png,s,green.png,2,2,2,10,2,1,1,5,1,,,,,,,,,,,,,907.3279186612835,None,0.010336327296499803,1.5039722688616166,111,4,117,4,908.8612944981478,911.8612461986813,2.003995211108304,3.5039761931930116,910.8612555567033,None,911.8445762416131,None,,,,,,,,,,,,,,,,,,,,,,,,,,,,,,B,045,yes,ES,Vpav,2020_Feb_19_1054,Pavlovian,3.2.4,59.94441056569209,
CBblue.png,s,red.png,1,2,2,10,2,1,2,6,0,,,,,,,,,,,,,912.8112686277464,None,0.011121103064397175,1.5054806310090498,111,4,117,4,914.3946489021237,917.3946123756514,2.005488781544045,3.505510818175935,916.3946102625505,None,917.3779330605621,None,,,,,,,,,,,,,,,,,,,,,,,,,,,,,,B,045,yes,ES,Vpav,2020_Feb_19_1054,Pavlovian,3.2.4,59.94441056569209,
CBblue.png,s,blue.png,3,2,2,10,2,1,3,7,2,,,,,,,,,,,,,918.327911114492,None,0.009766242657860857,1.5028077989145459,111,4,117,4,919.9445938709187,922.9445573444473,2.0028256093428354,3.502824401856742,921.9445552313455,None,922.9278961416576,None,,,,,,,,,,,,,,,,,,,,,,,,,,,,,,B,045,yes,ES,Vpav,2020_Feb_19_1054,Pavlovian,3.2.4,59.94441056569209,
CBblue.png,s,red.png,1,2,2,10,2,2,0,8,0,,,,,,,,,,,,,923.8112662127724,None,0.003027621862202068,1.4893256670020492,111,4,117,4,925.3944472518515,928.3946144887532,2.0060442254080044,3.506019170059517,927.3946063382182,None,928.3946144887532,None,,,,,,,,,,,,,,,,,,,,,,,,,,,,,,B,045,yes,ES,Vpav,2020_Feb_19_1054,Pavlovian,3.2.4,59.94441056569209,
CBblue.png,s,yellow.png,4,2,2,10,2,2,1,9,3,,,,,,,,,,,,,929.3278851535288,None,0.004991115917619027,1.493223856556142,111,4,117,4,930.8445816753037,933.8445391113992,2.00989743608352,3.5098717769924406,932.8445472619342,None,933.8445391113992,None,,,,,,,,,,,,,,,,,,,,,,,,,,,,,,B,045,yes,ES,Vpav,2020_Feb_19_1054,Pavlovian,3.2.4,59.94441056569209,
CBblue.png,s,green.png,2,2,2,10,2,2,2,10,1,,,,,,,,,,,,,934.8445436394741,None,0.0007516000714531401,1.5014374524935192,111,4,117,4,936.3946615807336,939.3946132812671,2.001448621745112,3.5014265851132222,938.3945673967737,None,939.3778781199198,None,,,,,,,,,,,,,,,,,,,,,,,,,,,,,,B,045,yes,ES,Vpav,2020_Feb_19_1054,Pavlovian,3.2.4,59.94441056569209,
CBblue.png,s,blue.png,3,2,2,10,2,2,3,11,2,,,,,,,,,,,,,940.311199499135,None,0.016147537965480296,1.5156071876854185,111,4,117,4,941.9278855761495,944.9278463328328,2.015598735279127,3.515583037952638,943.9278541814965,None,944.9112264864616,None,,,,,,,,,,,,,,,,,,,,,,,,,,,,,,B,045,yes,ES,Vpav,2020_Feb_19_1054,Pavlovian,3.2.4,59.94441056569209,
CBblue.png,s,,,2,2,10,2,,,,,,,,,,,,,,,,,945.9112436931464,None,,,,,,,,,,,,,,,0.01639280869221693,1.016108445584905,947.4278590114427,None,948.4278412010144,None,s,1,1.9939136634966417,948.4278412010144,None,947.4278590114427,None,159,4,947.4278590114427,None,0.01161738008067914,None,119,4,950.6778262583675,None,,,,,,,B,045,yes,ES,Vpav,2020_Feb_19_1054,Pavlovian,3.2.4,59.94441056569209,
CBgreen.png,n,yellow.png,4,2,3,11,1,0,0,0,3,,,,,,,,,,,,,952.911214109723,None,0.009646278859690938,1.5026383281638118,111,4,117,4,954.4278439178597,957.4278873873791,2.0026353094472142,3.5026353094472142,956.4278798405876,None,957.4111993180122,None,,,,,,,,,,,,,,,,,,,,,,,,,,,,,,B,045,yes,ES,Vpav,2020_Feb_19_1054,Pavlovian,3.2.4,59.94441056569209,
CBgreen.png,n,red.png,1,2,3,11,1,0,1,1,0,,,,,,,,,,,,,958.4444951588848,None,0.0014331055426737294,1.5028694109232674,111,4,117,4,960.044541465998,963.0445016189378,2.00290623926594,3.5028383181415848,962.0445031282961,None,963.0278524910154,None,,,,,,,,,,,,,,,,,,,,,,,,,,,,,,B,045,yes,ES,Vpav,2020_Feb_19_1054,Pavlovian,3.2.4,59.94441056569209,
CBgreen.png,n,blue.png,3,2,3,11,1,0,2,2,2,,,,,,,,,,,,,963.9278170512816,None,0.0018593483328004368,1.5037333676273192,111,4,117,4,965.5278627546513,968.5278150589284,2.0037188777869233,3.503716764685123,967.5278250206939,None,968.5111816283325,None,,,,,,,,,,,,,,,,,,,,,,,,,,,,,,B,045,yes,ES,Vpav,2020_Feb_19_1054,Pavlovian,3.2.4,59.94441056569209,
CBgreen.png,n,green.png,2,2,3,11,1,0,3,3,1,,,,,,,,,,,,,969.4112122984934,None,0.003790572306570539,1.4908831436678156,111,4,117,4,970.9112883701528,973.9111981105252,2.0076198143733563,3.507612871325364,972.9111987142687,None,973.9111981105252,None,,,,,,,,,,,,,,,,,,,,,,,,,,,,,,B,045,yes,ES,Vpav,2020_Feb_19_1054,Pavlovian,3.2.4,59.94441056569209,
CBgreen.png,n,yellow.png,4,2,3,11,1,1,0,4,3,,,,,,,,,,,,,974.894471099713,None,0.005977934390102746,1.4952783951066522,111,4,117,4,976.4112110910064,979.4111866394023,2.012019292014884,3.5119912179507082,978.411192073092,None,979.4111866394023,None,,,,,,,,,,,,,,,,,,,,,,,,,,,,,,B,045,yes,ES,Vpav,2020_Feb_19_1054,Pavlovian,3.2.4,59.94441056569209,
CBgreen.png,n,blue.png,3,2,3,11,1,1,1,5,2,,,,,,,,,,,,,980.4278357673247,None,0.014105647837823199,1.5115276638216528,111,4,117,4,982.0278992811227,985.0278235113356,2.0115343049983494,3.511522532003255,984.0278207944903,None,985.0111257820745,None,,,,,,,,,,,,,,,,,,,,,,,,,,,,,,B,045,yes,ES,Vpav,2020_Feb_19_1054,Pavlovian,3.2.4,59.94441056569209,
CBgreen.png,n,green.png,2,2,3,11,1,1,2,6,1,,,,,,,,,,,,,985.9111534335188,None,0.013821707350871293,1.5109355123649948,111,4,117,4,987.4611753795889,990.4611050434905,2.0109460778730863,3.510917098193204,989.4610908555223,None,990.4444719147659,None,,,,,,,,,,,,,,,,,,,,,,,,,,,,,,B,045,yes,ES,Vpav,2020_Feb_19_1054,Pavlovian,3.2.4,59.94441056569209,
CBgreen.png,n,red.png,1,2,3,11,1,1,3,7,0,,,,,,,,,,,,,991.394471099713,None,0.007142706207559968,1.4975911848650867,111,4,117,4,992.9944618624395,995.9944238266098,2.0142560101148774,3.514283480436461,994.994413562973,None,995.9944238266098,None,,,,,,,,,,,,,,,,,,,,,,,,,,,,,,B,045,yes,ES,Vpav,2020_Feb_19_1054,Pavlovian,3.2.4,59.94441056569209,
CBgreen.png,n,blue.png,3,2,3,11,1,2,0,8,2,,,,,,,,,,,,,996.9277998445968,None,0.012937102625073749,1.5092129118984303,111,4,117,4,998.5444421502198,1001.5444116611816,2.0092101950531287,3.5092029501329307,1000.5444131705399,None,1001.5277857773772,None,,,,,,,,,,,,,,,,,,,,,,,,,,,,,,B,045,yes,ES,Vpav,2020_Feb_19_1054,Pavlovian,3.2.4,59.94441056569209,
CBgreen.png,n,green.png,2,2,3,11,1,2,1,9,1,,,,,,,,,,,,,1002.411083701164,None,0.016624615943328536,1.516661444286001,111,4,117,4,1003.9444574249264,1006.9444227096847,1.9998963976440791,3.499887945237788,1005.944400974925,None,1006.9110655888644,None,,,,,,,,,,,,,,,,,,,,,,,,,,,,,,B,045,yes,ES,Vpav,2020_Feb_19_1054,Pavlovian,3.2.4,59.94441056569209,
CBgreen.png,n,yellow.png,4,2,3,11,1,2,2,10,3,,,,,,,,,,,,,1007.8944433275192,None,0.013418769051895652,1.5101851197805445,111,4,117,4,1009.4111579615937,1012.4110562308424,2.0101648943782493,3.510209269513325,1011.4110601551747,None,1012.3944200834012,None,,,,,,,,,,,,,,,,,,,,,,,,,,,,,,B,045,yes,ES,Vpav,2020_Feb_19_1054,Pavlovian,3.2.4,59.94441056569209,
CBgreen.png,n,red.png,1,2,3,11,1,2,3,11,0,,,,,,,,,,,,,1013.4278282205332,None,0.01456422108458355,1.512422139751834,111,4,117,4,1015.0111221596144,1018.0110584646927,2.0124194229065324,3.512418215420439,1017.011061181538,None,1017.9943812627052,None,,,,,,,,,,,,,,,,,,,,,,,,,,,,,,B,045,yes,ES,Vpav,2020_Feb_19_1054,Pavlovian,3.2.4,59.94441056569209,
CBgreen.png,n,,,2,3,11,1,,,,,,,,,,,,,,,,,1019.0277667594619,None,,,,,,,,,,,,,,,0.016397034895817342,1.015957207880092,1020.5110871425013,None,1021.511024956938,None,n,1,2.4912659471247025,1021.511024956938,None,1020.5110871425013,None,159,4,1020.5110871425013,None,0.011722129547706572,None,119,4,1024.2610420126875,None,,,,,,,B,045,yes,ES,Vpav,2020_Feb_19_1054,Pavlovian,3.2.4,59.94441056569209,
,,,,,,,,,,,,,,,,,,,,,,,,,,,,,,,,,,,,,,,,,,,,,,,,,,,,,,,,,,,,,,,1026.3944557042578,None,1028.1610104972851,None,1046.3109924151731,None,,,,,,,,,,
