faces,pgo,outcome,blockcode,blockend,face,block_loop.thisRepN,block_loop.thisTrialN,block_loop.thisN,block_loop.thisIndex,Cavb_trials.thisRepN,Cavb_trials.thisTrialN,Cavb_trials.thisN,Cavb_trials.thisIndex,p_port_2.started,p_port_2.stopped,Intro1.started,Intro1.stopped,p_port_2_start,p_port_2_end,text.started,text.stopped,text_2.started,text_2.stopped,text_3.started,text_3.stopped,text_8.started,text_8.stopped,text_21.started,text_21.stopped,image.started,image.stopped,empty.started,empty.stopped,fill.started,fill.stopped,mid.started,mid.stopped,text_9.started,text_9.stopped,cor.started,cor.stopped,text_14.started,text_14.stopped,text_17.started,text_17.stopped,text_22.started,text_22.stopped,image_2.started,image_2.stopped,empty1.started,empty1.stopped,fill1.started,fill1.stopped,mid1.started,mid1.stopped,text_10.started,text_10.stopped,text_15.started,text_15.stopped,corr.started,corr.stopped,text_18.started,text_18.stopped,text_23.started,text_23.stopped,empty22.started,empty22.stopped,fill22.started,fill22.stopped,mid22.started,mid22.stopped,image_22.started,image_22.stopped,text_25.started,text_25.stopped,text_26.started,text_26.stopped,neut.started,neut.stopped,text_27.started,text_27.stopped,text_24.started,text_24.stopped,image_4.started,image_4.stopped,empty3.started,empty3.stopped,fill3.started,fill3.stopped,mid3.started,mid3.stopped,text_12.started,text_12.stopped,neutral.started,neutral.stopped,text_13.started,text_13.stopped,text_20.started,text_20.stopped,blockstart_parport.started,blockstart_parport.stopped,blockstart_parport_start,blockstart_parport_end,text_6.started,text_6.stopped,image_6.started,image_6.stopped,decision_partport.started,decision_partport.stopped,decision_partport_start,decision_partport_end,obtained,image_5.started,image_5.stopped,emptymeter.started,emptymeter.stopped,key_resp_10.keys,key_resp_10.started,key_resp_10.stopped,fillmeter.started,fillmeter.stopped,midpoint.started,midpoint.stopped,polygon.started,polygon.stopped,text_7.started,text_7.stopped,feedback_parport.started,feedback_parport.stopped,feedback_parport_start,feedback_parport_end,correctimg.started,correctimg.stopped,incorrectimg.started,incorrectimg.stopped,neutralimg.started,neutralimg.stopped,text_4.started,text_4.stopped,text_5.started,text_5.stopped,key_resp_10.rt,p_port.started,p_port.stopped,p_port_start,p_port_end,text_end.started,text_end.stopped,participant,sequence #,participant initials,date,expName,psychopyVersion,frameRate,
Faces\faces\F2.jpg,0.3,-1,86,94,F2,0,0,0,3,0,0,0,0,0.014889155743276206,1.0297521090265036,55.6747867125755,None,157,4,77.20807108232475,None,96.64139004656681,None,110.29131913691299,None,120.84129519848966,None,126.54128276137726,None,131.05798441496972,None,131.05798441496972,None,131.05798441496972,None,131.05798441496972,None,133.49125960782067,None,133.9912668527404,None,133.9912668527404,None,135.9912638340238,None,138.99125568348882,None,143.39128937236683,None,143.39128937236683,None,143.39128937236683,None,143.39128937236683,None,145.1412457519109,None,145.6412499781145,None,145.6412499781145,None,147.64122643212477,None,150.64123790324766,None,151.19123720894322,None,151.19123720894322,None,151.19123720894322,None,151.19123720894322,None,152.34123572977205,None,152.84123754100165,None,152.84123754100165,None,154.84122697549356,None,157.84121942870206,None,159.69121275733823,None,159.69121275733823,None,159.69121275733823,None,159.69121275733823,None,161.44121230453084,None,161.94128777244669,None,161.94128777244669,None,163.94121139891558,None,0.0032604856637590274,2.0066034124783982,86,4,166.99123213749908,None,166.99123213749908,None,0.010684868320822716,None,95,4,-1,184.35785859485986,None,184.35785859485986,None,None,184.35785859485986,None,184.35785859485986,None,184.35785859485986,None,184.35785859485986,None,186.42453902687475,None,0.009907548783758102,None,100,4,186.8578625191917,None,186.8578625191917,None,186.8578625191917,None,186.8578625191917,None,188.92451004719487,None,,,,,,,,045,002,es,2020_Feb_19_1016,Neighborhood,3.2.4,60.013587301123295,
Faces\faces\F2.jpg,0.3,-1,86,94,F2,0,0,0,3,1,0,1,0,,,,,,,,,,,,,,,,,,,,,,,,,,,,,,,,,,,,,,,,,,,,,,,,,,,,,,,,,,,,,,,,,,,,,,,,,,,,,,,,,,,,,,,,,,,,,,,0.011050736778543069,None,95,4,0,191.87450138347776,None,191.87450138347776,None,space,191.87450138347776,None,191.87450138347776,None,191.87450138347776,None,191.87450138347776,None,193.9411866454393,None,0.010790825274852978,None,100,4,194.3578190496719,None,194.3578190496719,None,194.3578190496719,None,194.3578190496719,None,196.44114377966298,None,0.6188326864225928,,,,,,,045,002,es,2020_Feb_19_1016,Neighborhood,3.2.4,60.013587301123295,
Faces\faces\F2.jpg,0.3,-1,86,94,F2,0,0,0,3,2,0,2,0,,,,,,,,,,,,,,,,,,,,,,,,,,,,,,,,,,,,,,,,,,,,,,,,,,,,,,,,,,,,,,,,,,,,,,,,,,,,,,,,,,,,,,,,,,,,,,,0.011261745072260965,None,95,4,0,199.37449927037642,None,199.37449927037642,None,space,199.37449927037642,None,199.37449927037642,None,199.37449927037642,None,199.37449927037642,None,201.45780800116881,None,0.01183349000484668,None,100,4,201.85779489993865,None,201.85779489993865,None,201.85779489993865,None,201.85779489993865,None,203.9244714076217,None,1.0458256280589922,,,,,,,045,002,es,2020_Feb_19_1016,Neighborhood,3.2.4,60.013587301123295,
Faces\faces\F2.jpg,0.3,-1,86,94,F2,0,0,0,3,3,0,3,0,,,,,,,,,,,,,,,,,,,,,,,,,,,,,,,,,,,,,,,,,,,,,,,,,,,,,,,,,,,,,,,,,,,,,,,,,,,,,,,,,,,,,,,,,,,,,,,0.011886619418419286,None,95,4,0,206.87446817759474,None,206.87446817759474,None,space,206.87446817759474,None,206.87446817759474,None,206.87446817759474,None,206.87446817759474,None,208.94112868607954,None,0.011689497220686462,None,100,4,209.3577997298853,None,209.3577997298853,None,209.3577997298853,None,209.3577997298853,None,211.42445631403825,None,0.8677681359968119,,,,,,,045,002,es,2020_Feb_19_1016,Neighborhood,3.2.4,60.013587301123295,
Faces\faces\F2.jpg,0.3,-1,86,94,F2,0,0,0,3,4,0,4,0,,,,,,,,,,,,,,,,,,,,,,,,,,,,,,,,,,,,,,,,,,,,,,,,,,,,,,,,,,,,,,,,,,,,,,,,,,,,,,,,,,,,,,,,,,,,,,,0.011171183572059817,None,95,4,0,214.37431241181594,None,214.37431241181594,None,space,214.37431241181594,None,214.37431241181594,None,214.37431241181594,None,214.37431241181594,None,216.4411006120149,None,0.011838319951039011,None,100,4,216.8577861456606,None,216.8577861456606,None,216.8577861456606,None,216.8577861456606,None,218.92448529371813,None,1.8059197637189754,,,,,,,045,002,es,2020_Feb_19_1016,Neighborhood,3.2.4,60.013587301123295,
Faces\faces\F2.jpg,0.3,-1,86,94,F2,0,0,0,3,5,0,5,0,,,,,,,,,,,,,,,,,,,,,,,,,,,,,,,,,,,,,,,,,,,,,,,,,,,,,,,,,,,,,,,,,,,,,,,,,,,,,,,,,,,,,,,,,,,,,,,0.012545001518446952,None,95,4,0,221.87443829230006,None,221.87443829230006,None,space,221.87443829230006,None,221.87443829230006,None,221.87443829230006,None,221.87443829230006,None,223.9411066494481,None,0.01208977904798303,None,100,4,224.35778222132876,None,224.35778222132876,None,224.35778222132876,None,224.35778222132876,None,226.42444574853016,None,1.1457297536185251,,,,,,,045,002,es,2020_Feb_19_1016,Neighborhood,3.2.4,60.013587301123295,
Faces\faces\F2.jpg,0.3,-1,86,94,F2,0,0,0,3,6,0,6,0,,,,,,,,,,,,,,,,,,,,,,,,,,,,,,,,,,,,,,,,,,,,,,,,,,,,,,,,,,,,,,,,,,,,,,,,,,,,,,,,,,,,,,,,,,,,,,,0.01210034455607456,None,95,4,-1,229.37442410433187,None,229.37442410433187,None,space,229.37442410433187,None,229.37442410433187,None,229.37442410433187,None,229.37442410433187,None,231.4410897446346,None,0.010757015648778179,None,100,4,231.85774297801254,None,231.85774297801254,None,231.85774297801254,None,231.85774297801254,None,233.92445903088355,None,1.1046628304811748,,,,,,,045,002,es,2020_Feb_19_1016,Neighborhood,3.2.4,60.013587301123295,
Faces\faces\F2.jpg,0.3,-1,86,94,F2,0,0,0,3,7,0,7,0,,,,,,,,,,,,,,,,,,,,,,,,,,,,,,,,,,,,,,,,,,,,,,,,,,,,,,,,,,,,,,,,,,,,,,,,,,,,,,,,,,,,,,,,,,,,,,,0.012432403387265367,None,95,4,-1,236.87441082197847,None,236.87441082197847,None,None,236.87441082197847,None,236.87441082197847,None,236.87441082197847,None,236.87441082197847,None,238.94107706602472,None,0.012058686266755103,None,100,4,239.3577381480659,None,239.3577381480659,None,239.3577381480659,None,239.3577381480659,None,241.4244490691185,None,,,,,,,,045,002,es,2020_Feb_19_1016,Neighborhood,3.2.4,60.013587301123295,
Faces\faces\F2.jpg,0.3,-1,86,94,F2,0,0,0,3,8,0,8,0,,,,,,,,,,,,,,,,,,,,,,,,,,,,,,,,,,,,,,,,,,,,,,,,,,,,,,,,,,,,,,,,,,,,,,,,,,,,,,,,,,,,,,,,,,,,,,,0.011124393464342575,None,95,4,-1,244.37443165112336,None,244.37443165112336,None,space,244.37443165112336,None,244.37443165112336,None,244.37443165112336,None,244.37443165112336,None,246.44106016121168,None,0.011636669679319311,None,100,4,246.85773271437574,None,246.85773271437574,None,246.85773271437574,None,246.85773271437574,None,248.97439313229916,None,0.48159156401516157,,,,,,,045,002,es,2020_Feb_19_1016,Neighborhood,3.2.4,60.013587301123295,
Faces\faces\F2.jpg,0.3,-1,86,94,F2,0,0,0,3,9,0,9,0,,,,,,,,,,,,,,,,,,,,,,,,,,,,,,,,,,,,,,,,,,,,,,,,,,,,,,,,,,,,,,,,,,,,,,,,,,,,,,,,,,,,,,,,,,,,,,,0.01122310549908434,None,95,4,0,251.87438727598874,None,251.87438727598874,None,space,251.87438727598874,None,251.87438727598874,None,251.87438727598874,None,251.87438727598874,None,253.9411024232445,None,0.011006663515672699,None,100,4,254.3577106777443,None,254.3577106777443,None,254.3577106777443,None,254.3577106777443,None,256.42441254264713,None,0.33455229111541485,,,,,,,045,002,es,2020_Feb_19_1016,Neighborhood,3.2.4,60.013587301123295,
Faces\faces\F2.jpg,0.3,-1,86,94,F2,0,0,0,3,10,0,10,0,,,,,,,,,,,,,,,,,,,,,,,,,,,,,,,,,,,,,,,,,,,,,,,,,,,,,,,,,,,,,,,,,,,,,,,,,,,,,,,,,,,,,,,,,,,,,,,0.011977482789461646,None,95,4,0,259.3743712767905,None,259.3743712767905,None,space,259.3743712767905,None,259.3743712767905,None,259.3743712767905,None,259.3743712767905,None,261.441038426452,None,0.010580420725091244,None,100,4,261.85769618790437,None,261.85769618790437,None,261.85769618790437,None,261.85769618790437,None,263.9243892985287,None,0.4465663003757072,,,,,,,045,002,es,2020_Feb_19_1016,Neighborhood,3.2.4,60.013587301123295,
Faces\faces\F2.jpg,0.3,-1,86,94,F2,0,0,0,3,11,0,11,0,,,,,,,,,,,,,,,,,,,,,,,,,,,,,,,,,,,,,,,,,,,,,,,,,,,,,,,,,,,,,,,,,,,,,,,,,,,,,,,,,,,,,,,,,,,,,,,0.011248462718867813,None,95,4,0,266.87438787973224,None,266.87438787973224,None,space,266.87438787973224,None,266.87438787973224,None,266.87438787973224,None,266.87438787973224,None,268.9410607649552,None,0.01187786513901301,None,100,4,269.3576853205245,None,269.3576853205245,None,269.3576853205245,None,269.3576853205245,None,271.4244318624337,None,0.7764625229347075,,,,,,,045,002,es,2020_Feb_19_1016,Neighborhood,3.2.4,60.013587301123295,
Faces\faces\F2.jpg,0.3,-1,86,94,F2,0,0,0,3,12,0,12,0,,,,,,,,,,,,,,,,,,,,,,,,,,,,,,,,,,,,,,,,,,,,,,,,,,,,,,,,,,,,,,,,,,,,,,,,,,,,,,,,,,,,,,,,,,,,,,,0.011922542145839543,None,95,4,-1,274.3743468251855,None,274.3743468251855,None,space,274.3743468251855,None,274.3743468251855,None,274.3743468251855,None,274.3743468251855,None,276.44104627511524,None,0.010473558155354112,None,100,4,276.8576723400429,None,276.8576723400429,None,276.8576723400429,None,276.8576723400429,None,278.92433616911603,None,0.4184164657713154,,,,,,,045,002,es,2020_Feb_19_1016,Neighborhood,3.2.4,60.013587301123295,
Faces\faces\F2.jpg,0.3,-1,86,94,F2,0,0,0,3,13,0,13,0,,,,,,,,,,,,,,,,,,,,,,,,,,,,,,,,,,,,,,,,,,,,,,,,,,,,,,,,,,,,,,,,,,,,,,,,,,,,,,,,,,,,,,,,,,,,,,,0.011066132233736425,None,95,4,0,281.87434561769896,None,281.87434561769896,None,None,281.87434561769896,None,281.87434561769896,None,281.87434561769896,None,281.87434561769896,None,283.9410363133502,None,0.010823125543083734,None,100,4,284.3576650951227,None,284.3576650951227,None,284.3576650951227,None,284.3576650951227,None,286.42430718943615,None,,,,,,,,045,002,es,2020_Feb_19_1016,Neighborhood,3.2.4,60.013587301123295,
Faces\faces\F2.jpg,0.3,-1,86,94,F2,0,0,0,3,14,0,14,0,,,,,,,,,,,,,,,,,,,,,,,,,,,,,,,,,,,,,,,,,,,,,,,,,,,,,,,,,,,,,,,,,,,,,,,,,,,,,,,,,,,,,,,,,,,,,,,0.011836206849693554,None,95,4,-1,289.3743256941689,None,289.3743256941689,None,None,289.3743256941689,None,289.3743256941689,None,289.3743256941689,None,289.3743256941689,None,291.4410175973071,None,0.010297566974713845,None,100,4,291.8577004141075,None,291.8577004141075,None,291.8577004141075,None,291.8577004141075,None,293.9243135287411,None,,,,,,,,045,002,es,2020_Feb_19_1016,Neighborhood,3.2.4,60.013587301123295,
Faces\faces\F2.jpg,0.3,-1,86,94,F2,0,0,0,3,15,0,15,0,,,,,,,,,,,,,,,,,,,,,,,,,,,,,,,,,,,,,,,,,,,,,,,,,,,,,,,,,,,,,,,,,,,,,,,,,,,,,,,,,,,,,,,,,,,,,,,0.011108998009603965,None,95,4,0,296.87430939309934,None,296.87430939309934,None,space,296.87430939309934,None,296.87430939309934,None,296.87430939309934,None,296.87430939309934,None,298.9410287665587,None,0.011573880372907297,None,100,4,299.3576744531447,None,299.3576744531447,None,299.3576744531447,None,299.3576744531447,None,301.4243008501312,None,0.5183380998869325,,,,,,,045,002,es,2020_Feb_19_1016,Neighborhood,3.2.4,60.013587301123295,
Faces\faces\F2.jpg,0.3,-1,86,94,F2,0,0,0,3,16,0,16,0,,,,,,,,,,,,,,,,,,,,,,,,,,,,,,,,,,,,,,,,,,,,,,,,,,,,,,,,,,,,,,,,,,,,,,,,,,,,,,,,,,,,,,,,,,,,,,,0.012217470762152516,None,95,4,0,304.3743157324043,None,304.3743157324043,None,space,304.3743157324043,None,304.3743157324043,None,304.3743157324043,None,304.3743157324043,None,306.44102393661205,None,0.01022843836381071,None,100,4,306.85761226758177,None,306.85761226758177,None,306.85761226758177,None,306.85761226758177,None,308.92431171751105,None,0.3773220723128361,,,,,,,045,002,es,2020_Feb_19_1016,Neighborhood,3.2.4,60.013587301123295,
Faces\faces\F2.jpg,0.3,-1,86,94,F2,0,0,0,3,17,0,17,0,,,,,,,,,,,,,,,,,,,,,,,,,,,,,,,,,,,,,,,,,,,,,,,,,,,,,,,,,,,,,,,,,,,,,,,,,,,,,,,,,,,,,,,,,,,,,,,0.010934214315511781,None,95,4,0,311.8742958088742,None,311.8742958088742,None,space,311.8742958088742,None,311.8742958088742,None,311.8742958088742,None,311.8742958088742,None,313.94094484623565,None,0.010558987836702727,None,100,4,314.3576068338916,None,314.3576068338916,None,314.3576068338916,None,314.3576068338916,None,316.42427156857957,None,0.3343267929817557,,,,,,,045,002,es,2020_Feb_19_1016,Neighborhood,3.2.4,60.013587301123295,
Faces\faces\F2.jpg,0.3,-1,86,94,F2,0,0,0,3,18,0,18,0,,,,,,,,,,,,,,,,,,,,,,,,,,,,,,,,,,,,,,,,,,,,,,,,,,,,,,,,,,,,,,,,,,,,,,,,,,,,,,,,,,,,,,,,,,,,,,,0.01217249188448477,None,95,4,0,319.374297921976,None,319.374297921976,None,space,319.374297921976,None,319.374297921976,None,319.374297921976,None,319.374297921976,None,321.4409309601392,None,0.011303403361125675,None,100,4,321.8576382285446,None,321.8576382285446,None,321.8576382285446,None,321.8576382285446,None,323.9243585076192,None,0.3672099752889153,,,,,,,045,002,es,2020_Feb_19_1016,Neighborhood,3.2.4,60.013587301123295,
Faces\faces\F2.jpg,0.3,-1,86,94,F2,0,0,0,3,19,0,19,0,,,,,,,,,,,,,,,,,,,,,,,,,,,,,,,,,,,,,,,,,,,,,,,,,,,,,,,,,,,,,,,,,,,,,,,,,,,,,,,,,,,,,,,,,,,,,,,0.011066434104577638,None,95,4,0,326.87430124256434,None,326.87430124256434,None,space,326.87430124256434,None,326.87430124256434,None,326.87430124256434,None,326.87430124256434,None,328.9409219039894,None,0.010618758426062413,None,100,4,329.35762645554996,None,329.35762645554996,None,329.35762645554996,None,329.35762645554996,None,331.42424349451494,None,0.37917224374541547,,,,,,,045,002,es,2020_Feb_19_1016,Neighborhood,3.2.4,60.013587301123295,
Faces\faces\F2.jpg,0.3,-1,86,94,F2,0,0,0,3,20,0,20,0,,,,,,,,,,,,,,,,,,,,,,,,,,,,,,,,,,,,,,,,,,,,,,,,,,,,,,,,,,,,,,,,,,,,,,,,,,,,,,,,,,,,,,,,,,,,,,,0.012129927979913191,None,95,4,0,334.3742770928311,None,334.3742770928311,None,space,334.3742770928311,None,334.3742770928311,None,334.3742770928311,None,334.3742770928311,None,336.440923715219,None,0.011944578777274728,None,100,4,336.8576397379029,None,336.8576397379029,None,336.8576397379029,None,336.8576397379029,None,338.92421964665346,None,0.30213248181371455,,,,,,,045,002,es,2020_Feb_19_1016,Neighborhood,3.2.4,60.013587301123295,
Faces\faces\F2.jpg,0.3,-1,86,94,F2,0,0,0,3,21,0,21,0,,,,,,,,,,,,,,,,,,,,,,,,,,,,,,,,,,,,,,,,,,,,,,,,,,,,,,,,,,,,,,,,,,,,,,,,,,,,,,,,,,,,,,,,,,,,,,,0.010563817782895057,None,95,4,0,341.8742306045947,None,341.8742306045947,None,space,341.8742306045947,None,341.8742306045947,None,341.8742306045947,None,341.8742306045947,None,343.9408763213678,None,0.011409662187361391,None,100,4,344.3575446483287,None,344.3575446483287,None,344.3575446483287,None,344.3575446483287,None,346.4408865850046,None,0.9921446955413558,,,,,,,045,002,es,2020_Feb_19_1016,Neighborhood,3.2.4,60.013587301123295,
Faces\faces\F2.jpg,0.3,-1,86,94,F2,0,0,0,3,22,0,22,0,,,,,,,,,,,,,,,,,,,,,,,,,,,,,,,,,,,,,,,,,,,,,,,,,,,,,,,,,,,,,,,,,,,,,,,,,,,,,,,,,,,,,,,,,,,,,,,0.011017229023309483,None,95,4,0,349.3742985257195,None,349.3742985257195,None,space,349.3742985257195,None,349.3742985257195,None,349.3742985257195,None,349.3742985257195,None,351.4408748120095,None,0.011483318873615644,None,100,4,351.85754283709866,None,351.85754283709866,None,351.85754283709866,None,351.85754283709866,None,353.9241939875619,None,0.4800260575620996,,,,,,,045,002,es,2020_Feb_19_1016,Neighborhood,3.2.4,60.013587301123295,
Faces\faces\F2.jpg,0.3,-1,86,94,F2,0,0,0,3,23,0,23,0,,,,,,,,,,,,,,,,,,,,,,,,,,,,,,,,,,,,,,,,,,,,,,,,,,,,,,,,,,,,,,,,,,,,,,,,,,,,,,,,,,,,,,,,,,,,,,,0.010567440242539305,None,95,4,0,356.87425233935437,None,356.87425233935437,None,space,356.87425233935437,None,356.87425233935437,None,356.87425233935437,None,356.87425233935437,None,358.9408657558597,None,0.011414492134463217,None,100,4,359.3575265360287,None,359.3575265360287,None,359.3575265360287,None,359.3575265360287,None,361.44086605773145,None,0.7330886965364698,,,,,,,045,002,es,2020_Feb_19_1016,Neighborhood,3.2.4,60.013587301123295,
Faces\faces\F2.jpg,0.3,-1,86,94,F2,0,0,0,3,24,0,24,0,,,,,,,,,,,,,,,,,,,,,,,,,,,,,,,,,,,,,,,,,,,,,,,,,,,,,,,,,,,,,,,,,,,,,,,,,,,,,,,,,,,,,,,,,,,,,,,0.012971848052529822,None,95,4,-1,364.37423754764313,None,364.37423754764313,None,space,364.37423754764313,None,364.37423754764313,None,364.37423754764313,None,364.37423754764313,None,366.44085730345296,None,0.011499318071855669,None,100,4,366.8575250266704,None,366.8575250266704,None,366.8575250266704,None,366.8575250266704,None,368.92417406403183,None,0.3959892123143618,,,,,,,045,002,es,2020_Feb_19_1016,Neighborhood,3.2.4,60.013587301123295,
Faces\faces\F2.jpg,0.3,-1,86,94,F2,0,0,0,3,25,0,25,0,,,,,,,,,,,,,,,,,,,,,,,,,,,,,,,,,,,,,,,,,,,,,,,,,,,,,,,,,,,,,,,,,,,,,,,,,,,,,,,,,,,,,,,,,,,,,,,0.012237092420491535,None,95,4,-1,371.8742472075364,None,371.8742472075364,None,None,371.8742472075364,None,371.8742472075364,None,371.8742472075364,None,371.8742472075364,None,373.9574937527659,None,0.010379374195963464,None,100,4,374.35751204618873,None,374.35751204618873,None,374.35751204618873,None,374.35751204618873,None,376.4241743659036,None,,,,,,,,045,002,es,2020_Feb_19_1016,Neighborhood,3.2.4,60.013587301123295,
Faces\faces\F2.jpg,0.3,-1,86,94,F2,0,0,0,3,26,0,26,0,,,,,,,,,,,,,,,,,,,,,,,,,,,,,,,,,,,,,,,,,,,,,,,,,,,,,,,,,,,,,,,,,,,,,,,,,,,,,,,,,,,,,,,,,,,,,,,0.01198502958050085,None,95,4,-1,379.37416811716,None,379.37416811716,None,space,379.37416811716,None,379.37416811716,None,379.37416811716,None,379.37416811716,None,381.4408243994417,None,0.011491167536860303,None,100,4,381.8574915189156,None,381.8574915189156,None,381.8574915189156,None,381.8574915189156,None,383.9241505180421,None,0.3109893964560797,,,,,,,045,002,es,2020_Feb_19_1016,Neighborhood,3.2.4,60.013587301123295,
Faces\faces\F2.jpg,0.3,-1,86,94,F2,0,0,0,3,27,0,27,0,,,,,,,,,,,,,,,,,,,,,,,,,,,,,,,,,,,,,,,,,,,,,,,,,,,,,,,,,,,,,,,,,,,,,,,,,,,,,,,,,,,,,,,,,,,,,,,0.013130330676631274,None,95,4,0,386.8741699283901,None,386.8741699283901,None,space,386.8741699283901,None,386.8741699283901,None,386.8741699283901,None,386.8741699283901,None,388.94080417403984,None,0.010789315916554187,None,100,4,389.3574773309474,None,389.3574773309474,None,389.3574773309474,None,389.3574773309474,None,391.4241384431757,None,0.49790410503192106,,,,,,,045,002,es,2020_Feb_19_1016,Neighborhood,3.2.4,60.013587301123295,
Faces\faces\F2.jpg,0.3,-1,86,94,F2,0,0,0,3,28,0,28,0,,,,,,,,,,,,,,,,,,,,,,,,,,,,,,,,,,,,,,,,,,,,,,,,,,,,,,,,,,,,,,,,,,,,,,,,,,,,,,,,,,,,,,,,,,,,,,,0.0117399097885027,None,95,4,-1,394.3741409487102,None,394.3741409487102,None,None,394.3741409487102,None,394.3741409487102,None,394.3741409487102,None,394.3741409487102,None,396.44080779649994,None,0.010478086230250483,None,100,4,396.85746193549267,None,396.85746193549267,None,396.85746193549267,None,396.85746193549267,None,398.924131801999,None,,,,,,,,045,002,es,2020_Feb_19_1016,Neighborhood,3.2.4,60.013587301123295,
Faces\faces\F2.jpg,0.3,-1,86,94,F2,0,0,0,3,29,0,29,0,,,,,,,,,,,,,,,,,,,,,,,,,,,,,,,,,,,,,,,,,,,,,,,,,,,,,,,,,,,,,,,,,,,,,,,,,,,,,,,,,,,,,,,,,,,,,,,0.013088068643355655,None,95,4,0,401.8741445711703,None,401.8741445711703,None,space,401.8741445711703,None,401.8741445711703,None,401.8741445711703,None,401.8741445711703,None,403.94077428874516,None,0.010597627409424604,None,100,4,404.35743718201593,None,404.35743718201593,None,404.35743718201593,None,404.35743718201593,None,406.42411882151737,None,0.2568825230191578,,,,,,,045,002,es,2020_Feb_19_1016,Neighborhood,3.2.4,60.013587301123295,
Faces\faces\F2.jpg,0.3,-1,86,94,F2,0,0,0,3,30,0,30,0,,,,,,,,,,,,,,,,,,,,,,,,,,,,,,,,,,,,,,,,,,,,,,,,,,,,,,,,,,,,,,,,,,,,,,,,,,,,,,,,,,,,,,,,,,,,,,,0.011729646152161877,None,95,4,0,409.3741177045922,None,409.3741177045922,None,space,409.3741177045922,None,409.3741177045922,None,409.3741177045922,None,409.3741177045922,None,411.44077127002856,None,0.010463294518558541,None,100,4,411.8574459362944,None,411.8574459362944,None,411.8574459362944,None,411.8574459362944,None,413.9241058410357,None,0.34980133825729354,,,,,,,045,002,es,2020_Feb_19_1016,Neighborhood,3.2.4,60.013587301123295,
Faces\faces\F2.jpg,0.3,-1,86,94,F2,0,0,0,3,31,0,31,0,,,,,,,,,,,,,,,,,,,,,,,,,,,,,,,,,,,,,,,,,,,,,,,,,,,,,,,,,,,,,,,,,,,,,,,,,,,,,,,,,,,,,,,,,,,,,,,0.012020046693578479,None,95,4,-1,416.874158155395,None,416.874158155395,None,space,416.874158155395,None,416.874158155395,None,416.874158155395,None,416.874158155395,None,418.9407658363384,None,0.011500525558403751,None,100,4,419.35742752212263,None,419.35742752212263,None,419.35742752212263,None,419.35742752212263,None,421.42408561563434,None,0.5427510651538796,,,,,,,045,002,es,2020_Feb_19_1016,Neighborhood,3.2.4,60.013587301123295,
Faces\faces\F2.jpg,0.3,-1,86,94,F2,0,0,0,3,32,0,32,0,,,,,,,,,,,,,,,,,,,,,,,,,,,,,,,,,,,,,,,,,,,,,,,,,,,,,,,,,,,,,,,,,,,,,,,,,,,,,,,,,,,,,,,,,,,,,,,0.011686478503634135,None,95,4,-1,424.3740893286558,None,424.3740893286558,None,space,424.3740893286558,None,424.3740893286558,None,424.3740893286558,None,424.3740893286558,None,426.4407450071935,None,0.010187383817083173,None,100,4,426.8574323520693,None,426.8574323520693,None,426.8574323520693,None,426.8574323520693,None,428.9240825969173,None,0.5587288304950562,,,,,,,045,002,es,2020_Feb_19_1016,Neighborhood,3.2.4,60.013587301123295,
Faces\faces\F2.jpg,0.3,-1,86,94,F2,0,0,0,3,33,0,33,0,,,,,,,,,,,,,,,,,,,,,,,,,,,,,,,,,,,,,,,,,,,,,,,,,,,,,,,,,,,,,,,,,,,,,,,,,,,,,,,,,,,,,,,,,,,,,,,0.011895977439507988,None,95,4,-1,431.8740793668908,None,431.8740793668908,None,None,431.8740793668908,None,431.8740793668908,None,431.8740793668908,None,431.8740793668908,None,433.94078636361155,None,0.011532222084042587,None,100,4,434.35740125928805,None,434.35740125928805,None,434.35740125928805,None,434.35740125928805,None,436.4241058410357,None,,,,,,,,045,002,es,2020_Feb_19_1016,Neighborhood,3.2.4,60.013587301123295,
Faces\faces\F2.jpg,0.3,-1,86,94,F2,0,0,0,3,34,0,34,0,,,,,,,,,,,,,,,,,,,,,,,,,,,,,,,,,,,,,,,,,,,,,,,,,,,,,,,,,,,,,,,,,,,,,,,,,,,,,,,,,,,,,,,,,,,,,,,0.012615941359854332,None,95,4,-1,439.3740675938957,None,439.3740675938957,None,None,439.3740675938957,None,439.3740675938957,None,439.3740675938957,None,439.3740675938957,None,441.44072689489394,None,0.010197345582128037,None,100,4,441.8574127304114,None,441.8574127304114,None,441.8574127304114,None,441.8574127304114,None,443.92409980360253,None,,,,,,,,045,002,es,2020_Feb_19_1016,Neighborhood,3.2.4,60.013587301123295,
Faces\faces\F2.jpg,0.3,-1,86,94,F2,0,0,0,3,35,0,35,0,,,,,,,,,,,,,,,,,,,,,,,,,,,,,,,,,,,,,,,,,,,,,,,,,,,,,,,,,,,,,,,,,,,,,,,,,,,,,,,,,,,,,,,,,,,,,,,0.011871827706727345,None,95,4,0,446.8740518965692,None,446.8740518965692,None,space,446.8740518965692,None,446.8740518965692,None,446.8740518965692,None,446.8740518965692,None,448.9407102919522,None,0.010549026071657863,None,100,4,449.35738556196156,None,449.35738556196156,None,449.35738556196156,None,449.35738556196156,None,451.42408048381594,None,1.72360237947305,,,,,,,045,002,es,2020_Feb_19_1016,Neighborhood,3.2.4,60.013587301123295,
Faces\faces\F2.jpg,0.3,-1,86,94,F2,0,0,0,3,36,0,36,0,,,,,,,,,,,,,,,,,,,,,,,,,,,,,,,,,,,,,,,,,,,,,,,,,,,,,,,,,,,,,,,,,,,,,,,,,,,,,,,,,,,,,,,,,,,,,,,0.012455043762656715,None,95,4,0,454.3740422366759,None,454.3740422366759,None,None,454.3740422366759,None,454.3740422366759,None,454.3740422366759,None,454.3740422366759,None,456.440679199171,None,0.010010788893850986,None,100,4,456.8573710721216,None,456.8573710721216,None,456.8573710721216,None,456.8573710721216,None,458.92409014370924,None,,,,,,,,045,002,es,2020_Feb_19_1016,Neighborhood,3.2.4,60.013587301123295,
Faces\faces\F2.jpg,0.3,-1,86,94,F2,0,0,0,3,37,0,37,0,,,,,,,,,,,,,,,,,,,,,,,,,,,,,,,,,,,,,,,,,,,,,,,,,,,,,,,,,,,,,,,,,,,,,,,,,,,,,,,,,,,,,,,,,,,,,,,0.011788511127178936,None,95,4,-1,461.87402533186287,None,461.87402533186287,None,space,461.87402533186287,None,461.87402533186287,None,461.87402533186287,None,461.87402533186287,None,463.9406936890109,None,0.010271907883634412,None,100,4,464.35737982639967,None,464.35737982639967,None,464.35737982639967,None,464.35737982639967,None,466.42404033488447,None,0.24955519210197963,,,,,,,045,002,es,2020_Feb_19_1016,Neighborhood,3.2.4,60.013587301123295,
Faces\faces\F2.jpg,0.3,-1,86,94,F2,0,0,0,3,38,0,38,0,,,,,,,,,,,,,,,,,,,,,,,,,,,,,,,,,,,,,,,,,,,,,,,,,,,,,,,,,,,,,,,,,,,,,,,,,,,,,,,,,,,,,,,,,,,,,,,0.013169272120649111,None,95,4,-1,469.3740117476377,None,469.3740117476377,None,None,469.3740117476377,None,469.3740117476377,None,469.3740117476377,None,469.3740117476377,None,471.4407139144123,None,0.011034737579848297,None,100,4,471.85733907372514,None,471.85733907372514,None,471.85733907372514,None,471.85733907372514,None,473.92404274985756,None,,,,,,,,045,002,es,2020_Feb_19_1016,Neighborhood,3.2.4,60.013587301123295,
Faces\faces\F2.jpg,0.3,-1,86,94,F2,0,0,0,3,39,0,39,0,,,,,,,,,,,,,,,,,,,,,,,,,,,,,,,,,,,,,,,,,,,,,,,,,,,,,,,,,,,,,,,,,,,,,,,,,,,,,,,,,,,,,,,,,,,,,,,0.011850998561385495,None,95,4,-1,476.87400118212963,None,476.87400118212963,None,space,476.87400118212963,None,476.87400118212963,None,476.87400118212963,None,476.87400118212963,None,478.9406568606678,None,0.011227935445731418,None,100,4,479.3573106977883,None,479.3573106977883,None,479.3573106977883,None,479.3573106977883,None,481.4240816913025,None,0.6134928785454576,,,,,,,045,002,es,2020_Feb_19_1016,Neighborhood,3.2.4,60.013587301123295,
Faces\faces\M1.jpg,0.3,1,84,92,M1,0,1,1,1,0,0,0,0,,,,,,,,,,,,,,,,,,,,,,,,,,,,,,,,,,,,,,,,,,,,,,,,,,,,,,,,,,,,,,,,,,,,,,,,,,,,,,,,,,,,,,,0.00013164623305783607,2.000229754524298,84,4,486.42396607445517,None,486.42396607445517,None,0.009958263223325048,None,95,4,0,492.0571509473034,None,492.0571509473034,None,None,492.0571509473034,None,492.0571509473034,None,492.0571509473034,None,492.0571509473034,None,494.12396873092575,None,0.010174403335895477,None,100,4,494.55729856254766,None,494.55729856254766,None,494.55729856254766,None,494.55729856254766,None,496.6239699384123,None,,0.006426968490359286,None,94,4,484.357318546452,None,045,002,es,2020_Feb_19_1016,Neighborhood,3.2.4,60.013587301123295,
Faces\faces\M1.jpg,0.3,1,84,92,M1,0,1,1,1,1,0,1,0,,,,,,,,,,,,,,,,,,,,,,,,,,,,,,,,,,,,,,,,,,,,,,,,,,,,,,,,,,,,,,,,,,,,,,,,,,,,,,,,,,,,,,,,,,,,,,,0.012811554198833619,None,95,4,0,499.57397033084544,None,499.57397033084544,None,space,499.57397033084544,None,499.57397033084544,None,499.57397033084544,None,499.57397033084544,None,501.6406601208814,None,0.010417410025638674,None,100,4,502.0572876951678,None,502.0572876951678,None,502.0572876951678,None,502.0572876951678,None,504.1239515242405,None,0.40838436473814,,,,,,,045,002,es,2020_Feb_19_1016,Neighborhood,3.2.4,60.013587301123295,
Faces\faces\M1.jpg,0.3,1,84,92,M1,0,1,1,1,2,0,2,0,,,,,,,,,,,,,,,,,,,,,,,,,,,,,,,,,,,,,,,,,,,,,,,,,,,,,,,,,,,,,,,,,,,,,,,,,,,,,,,,,,,,,,,,,,,,,,,0.012199962205613701,None,95,4,0,507.07395101105885,None,507.07395101105885,None,space,507.07395101105885,None,507.07395101105885,None,507.07395101105885,None,507.07395101105885,None,509.1406607246249,None,0.010141197452867345,None,100,4,509.5572759221727,None,509.5572759221727,None,509.5572759221727,None,509.5572759221727,None,511.6239424680907,None,0.34135647843777406,,,,,,,045,002,es,2020_Feb_19_1016,Neighborhood,3.2.4,60.013587301123295,
Faces\faces\M1.jpg,0.3,1,84,92,M1,0,1,1,1,3,0,3,0,,,,,,,,,,,,,,,,,,,,,,,,,,,,,,,,,,,,,,,,,,,,,,,,,,,,,,,,,,,,,,,,,,,,,,,,,,,,,,,,,,,,,,,,,,,,,,,0.011718175028818223,None,95,4,0,514.5739374268342,None,514.5739374268342,None,space,514.5739374268342,None,514.5739374268342,None,514.5739374268342,None,514.5739374268342,None,516.6406667620581,None,0.011320308174617821,None,100,4,517.0572997700342,None,517.0572997700342,None,517.0572997700342,None,517.0572997700342,None,519.1239255632777,None,0.3073313156232871,,,,,,,045,002,es,2020_Feb_19_1016,Neighborhood,3.2.4,60.013587301123295,
Faces\faces\M1.jpg,0.3,1,84,92,M1,0,1,1,1,4,0,4,0,,,,,,,,,,,,,,,,,,,,,,,,,,,,,,,,,,,,,,,,,,,,,,,,,,,,,,,,,,,,,,,,,,,,,,,,,,,,,,,,,,,,,,,,,,,,,,,0.01136075897829869,None,95,4,0,522.0739365212189,None,522.0739365212189,None,space,522.0739365212189,None,522.0739365212189,None,522.0739365212189,None,522.0739365212189,None,524.1405728799705,None,0.010983721268985391,None,100,4,524.5572991662912,None,524.5572991662912,None,524.5572991662912,None,524.5572991662912,None,526.6239098659512,None,0.5652513715540408,,,,,,,045,002,es,2020_Feb_19_1016,Neighborhood,3.2.4,60.013587301123295,
Faces\faces\M1.jpg,0.3,1,84,92,M1,0,1,1,1,5,0,5,0,,,,,,,,,,,,,,,,,,,,,,,,,,,,,,,,,,,,,,,,,,,,,,,,,,,,,,,,,,,,,,,,,,,,,,,,,,,,,,,,,,,,,,,,,,,,,,,0.011717571285316808,None,95,4,1,529.5739033153359,None,529.5739033153359,None,None,529.5739033153359,None,529.5739033153359,None,529.5739033153359,None,529.5739033153359,None,531.640572276227,None,0.011235180365474662,None,100,4,532.0572807521194,None,532.0572807521194,None,532.0572807521194,None,532.0572807521194,None,534.1238986966996,None,,,,,,,,045,002,es,2020_Feb_19_1016,Neighborhood,3.2.4,60.013587301123295,
Faces\faces\M1.jpg,0.3,1,84,92,M1,0,1,1,1,6,0,6,0,,,,,,,,,,,,,,,,,,,,,,,,,,,,,,,,,,,,,,,,,,,,,,,,,,,,,,,,,,,,,,,,,,,,,,,,,,,,,,,,,,,,,,,,,,,,,,,0.012011594286832405,None,95,4,0,537.0739422567808,None,537.0739422567808,None,space,537.0739422567808,None,537.0739422567808,None,537.0739422567808,None,537.0739422567808,None,539.1405626163337,None,0.00973668942151562,None,100,4,539.5572632435628,None,539.5572632435628,None,539.5572632435628,None,539.5572632435628,None,541.6239098659512,None,0.8991365262904765,,,,,,,045,002,es,2020_Feb_19_1016,Neighborhood,3.2.4,60.013587301123295,
Faces\faces\M1.jpg,0.3,1,84,92,M1,0,1,1,1,7,0,7,0,,,,,,,,,,,,,,,,,,,,,,,,,,,,,,,,,,,,,,,,,,,,,,,,,,,,,,,,,,,,,,,,,,,,,,,,,,,,,,,,,,,,,,,,,,,,,,,0.012513908736764279,None,95,4,1,544.5738852030358,None,544.5738852030358,None,None,544.5738852030358,None,544.5738852030358,None,544.5738852030358,None,544.5738852030358,None,546.6405517489538,None,0.011137977689486434,None,100,4,547.0572780352745,None,547.0572780352745,None,547.0572780352745,None,547.0572780352745,None,549.1238736413511,None,,,,,,,,045,002,es,2020_Feb_19_1016,Neighborhood,3.2.4,60.013587301123295,
Faces\faces\M1.jpg,0.3,1,84,92,M1,0,1,1,1,8,0,8,0,,,,,,,,,,,,,,,,,,,,,,,,,,,,,,,,,,,,,,,,,,,,,,,,,,,,,,,,,,,,,,,,,,,,,,,,,,,,,,,,,,,,,,,,,,,,,,,0.01291328494926347,None,95,4,1,552.0738704113246,None,552.0738704113246,None,None,552.0738704113246,None,552.0738704113246,None,552.0738704113246,None,552.0738704113246,None,554.1405354478838,None,0.009646429793974676,None,100,4,554.557293732601,None,554.557293732601,None,554.557293732601,None,554.557293732601,None,556.6238724338646,None,,,,,,,,045,002,es,2020_Feb_19_1016,Neighborhood,3.2.4,60.013587301123295,
Faces\faces\M1.jpg,0.3,1,84,92,M1,0,1,1,1,9,0,9,0,,,,,,,,,,,,,,,,,,,,,,,,,,,,,,,,,,,,,,,,,,,,,,,,,,,,,,,,,,,,,,,,,,,,,,,,,,,,,,,,,,,,,,,,,,,,,,,0.011552447485428274,None,95,4,1,559.5738610533026,None,559.5738610533026,None,None,559.5738610533026,None,559.5738610533026,None,559.5738610533026,None,559.5738610533026,None,561.640501336386,None,0.010178931410791847,None,100,4,562.057211623508,None,562.057211623508,None,562.057211623508,None,562.057211623508,None,564.1238525103345,None,,,,,,,,045,002,es,2020_Feb_19_1016,Neighborhood,3.2.4,60.013587301123295,
Faces\faces\M1.jpg,0.3,1,84,92,M1,0,1,1,1,10,0,10,0,,,,,,,,,,,,,,,,,,,,,,,,,,,,,,,,,,,,,,,,,,,,,,,,,,,,,,,,,,,,,,,,,,,,,,,,,,,,,,,,,,,,,,,,,,,,,,,0.01281879911903161,None,95,4,0,567.0738839955493,None,567.0738839955493,None,space,567.0738839955493,None,567.0738839955493,None,567.0738839955493,None,567.0738839955493,None,569.1405562770287,None,0.01131276138312387,None,100,4,569.5571738895501,None,569.5571738895501,None,569.5571738895501,None,569.5571738895501,None,571.6238334924196,None,0.28308196479838443,,,,,,,045,002,es,2020_Feb_19_1016,Neighborhood,3.2.4,60.013587301123295,
Faces\faces\M1.jpg,0.3,1,84,92,M1,0,1,1,1,11,0,11,0,,,,,,,,,,,,,,,,,,,,,,,,,,,,,,,,,,,,,,,,,,,,,,,,,,,,,,,,,,,,,,,,,,,,,,,,,,,,,,,,,,,,,,,,,,,,,,,0.011498110585307586,None,95,4,1,574.5738782599879,None,574.5738782599879,None,None,574.5738782599879,None,574.5738782599879,None,574.5738782599879,None,574.5738782599879,None,576.6404928839793,None,0.010124594510671159,None,100,4,577.0571560791218,None,577.0571560791218,None,577.0571560791218,None,577.0571560791218,None,579.1238247381416,None,,,,,,,,045,002,es,2020_Feb_19_1016,Neighborhood,3.2.4,60.013587301123295,
Faces\faces\M1.jpg,0.3,1,84,92,M1,0,1,1,1,12,0,12,0,,,,,,,,,,,,,,,,,,,,,,,,,,,,,,,,,,,,,,,,,,,,,,,,,,,,,,,,,,,,,,,,,,,,,,,,,,,,,,,,,,,,,,,,,,,,,,,0.01266061836577137,None,95,4,0,582.0738568270995,None,582.0738568270995,None,space,582.0738568270995,None,582.0738568270995,None,582.0738568270995,None,582.0738568270995,None,584.1404808091129,None,0.010172893977141939,None,100,4,584.557147022972,None,584.557147022972,None,584.557147022972,None,584.557147022972,None,586.6238075314568,None,0.7718958083914913,,,,,,,045,002,es,2020_Feb_19_1016,Neighborhood,3.2.4,60.013587301123295,
Faces\faces\M1.jpg,0.3,1,84,92,M1,0,1,1,1,13,0,13,0,,,,,,,,,,,,,,,,,,,,,,,,,,,,,,,,,,,,,,,,,,,,,,,,,,,,,,,,,,,,,,,,,,,,,,,,,,,,,,,,,,,,,,,,,,,,,,,0.012205094024011487,None,95,4,1,589.5738773543726,None,589.5738773543726,None,None,589.5738773543726,None,589.5738773543726,None,589.5738773543726,None,589.5738773543726,None,591.6404675267595,None,0.010008977663801488,None,100,4,592.0571352499769,None,592.0571352499769,None,592.0571352499769,None,592.0571352499769,None,594.1238005884084,None,,,,,,,,045,002,es,2020_Feb_19_1016,Neighborhood,3.2.4,60.013587301123295,
Faces\faces\M1.jpg,0.3,1,84,92,M1,0,1,1,1,14,0,14,0,,,,,,,,,,,,,,,,,,,,,,,,,,,,,,,,,,,,,,,,,,,,,,,,,,,,,,,,,,,,,,,,,,,,,,,,,,,,,,,,,,,,,,,,,,,,,,,0.011614934919634834,None,95,4,1,597.0737961508949,None,597.0737961508949,None,None,597.0737961508949,None,597.0737961508949,None,597.0737961508949,None,597.0737961508949,None,599.1571196733989,None,0.011036246938601835,None,100,4,599.5571216657522,None,599.5571216657522,None,599.5571216657522,None,599.5571216657522,None,601.6571015610994,None,,,,,,,,045,002,es,2020_Feb_19_1016,Neighborhood,3.2.4,60.013587301123295,
Faces\faces\M1.jpg,0.3,1,84,92,M1,0,1,1,1,15,0,15,0,,,,,,,,,,,,,,,,,,,,,,,,,,,,,,,,,,,,,,,,,,,,,,,,,,,,,,,,,,,,,,,,,,,,,,,,,,,,,,,,,,,,,,,,,,,,,,,0.012268185201719461,None,95,4,0,604.573810338863,None,604.573810338863,None,None,604.573810338863,None,604.573810338863,None,604.573810338863,None,604.573810338863,None,606.6737754424985,None,0.009875852259028761,None,100,4,607.0571083833988,None,607.0571083833988,None,607.0571083833988,None,607.0571083833988,None,609.1404412639249,None,,,,,,,,045,002,es,2020_Feb_19_1016,Neighborhood,3.2.4,60.013587301123295,
Faces\faces\M1.jpg,0.3,1,84,92,M1,0,1,1,1,16,0,16,0,,,,,,,,,,,,,,,,,,,,,,,,,,,,,,,,,,,,,,,,,,,,,,,,,,,,,,,,,,,,,,,,,,,,,,,,,,,,,,,,,,,,,,,,,,,,,,,0.011584445881453576,None,95,4,1,612.0737677749585,None,612.0737677749585,None,space,612.0737677749585,None,612.0737677749585,None,612.0737677749585,None,612.0737677749585,None,614.1404328115182,None,0.010199458683473495,None,100,4,614.557097516019,None,614.557097516019,None,614.557097516019,None,614.557097516019,None,616.6237604394769,None,0.29085908449587805,,,,,,,045,002,es,2020_Feb_19_1016,Neighborhood,3.2.4,60.013587301123295,
Faces\faces\M1.jpg,0.3,1,84,92,M1,0,1,1,1,17,0,17,0,,,,,,,,,,,,,,,,,,,,,,,,,,,,,,,,,,,,,,,,,,,,,,,,,,,,,,,,,,,,,,,,,,,,,,,,,,,,,,,,,,,,,,,,,,,,,,,0.012282373170364735,None,95,4,0,619.5737680768302,None,619.5737680768302,None,space,619.5737680768302,None,619.5737680768302,None,619.5737680768302,None,619.5737680768302,None,621.6404424714115,None,0.009853211884546909,None,100,4,622.0570791018472,None,622.0570791018472,None,622.0570791018472,None,622.0570791018472,None,624.1237480627387,None,0.9498189675623507,,,,,,,045,002,es,2020_Feb_19_1016,Neighborhood,3.2.4,60.013587301123295,
Faces\faces\M1.jpg,0.3,1,84,92,M1,0,1,1,1,18,0,18,0,,,,,,,,,,,,,,,,,,,,,,,,,,,,,,,,,,,,,,,,,,,,,,,,,,,,,,,,,,,,,,,,,,,,,,,,,,,,,,,,,,,,,,,,,,,,,,,0.01155788117512202,None,95,4,1,627.0737442289687,None,627.0737442289687,None,None,627.0737442289687,None,627.0737442289687,None,627.0737442289687,None,627.0737442289687,None,629.1404035299665,None,0.010085653066198574,None,100,4,629.5570972141472,None,629.5570972141472,None,629.5570972141472,None,629.5570972141472,None,631.623729648567,None,,,,,,,,045,002,es,2020_Feb_19_1016,Neighborhood,3.2.4,60.013587301123295,
Faces\faces\M1.jpg,0.3,1,84,92,M1,0,1,1,1,19,0,19,0,,,,,,,,,,,,,,,,,,,,,,,,,,,,,,,,,,,,,,,,,,,,,,,,,,,,,,,,,,,,,,,,,,,,,,,,,,,,,,,,,,,,,,,,,,,,,,,0.011679837327392306,None,95,4,1,634.5737424177387,None,634.5737424177387,None,None,634.5737424177387,None,634.5737424177387,None,634.5737424177387,None,634.5737424177387,None,636.6570475260714,None,0.009718577121930139,None,100,4,637.0570570652158,None,637.0570570652158,None,637.0570570652158,None,637.0570570652158,None,639.1570532616329,None,,,,,,,,045,002,es,2020_Feb_19_1016,Neighborhood,3.2.4,60.013587301123295,
Faces\faces\M1.jpg,0.3,1,84,92,M1,0,1,1,1,20,0,20,0,,,,,,,,,,,,,,,,,,,,,,,,,,,,,,,,,,,,,,,,,,,,,,,,,,,,,,,,,,,,,,,,,,,,,,,,,,,,,,,,,,,,,,,,,,,,,,,0.011548523153578572,None,95,4,0,642.0737206829785,None,642.0737206829785,None,space,642.0737206829785,None,642.0737206829785,None,642.0737206829785,None,642.0737206829785,None,644.1737090307324,None,0.010066031407859555,None,100,4,644.5570404622745,None,644.5570404622745,None,644.5570404622745,None,644.5570404622745,None,646.6403932663302,None,0.3717317109544638,,,,,,,045,002,es,2020_Feb_19_1016,Neighborhood,3.2.4,60.013587301123295,
Faces\faces\M1.jpg,0.3,1,84,92,M1,0,1,1,1,21,0,21,0,,,,,,,,,,,,,,,,,,,,,,,,,,,,,,,,,,,,,,,,,,,,,,,,,,,,,,,,,,,,,,,,,,,,,,,,,,,,,,,,,,,,,,,,,,,,,,,0.01261352638630342,None,95,4,0,649.5737134380588,None,649.5737134380588,None,None,649.5737134380588,None,649.5737134380588,None,649.5737134380588,None,649.5737134380588,None,651.6403567398584,None,0.009736991293266328,None,100,4,652.0570501221678,None,652.0570501221678,None,652.0570501221678,None,652.0570501221678,None,654.1236907071225,None,,,,,,,,045,002,es,2020_Feb_19_1016,Neighborhood,3.2.4,60.013587301123295,
Faces\faces\M1.jpg,0.3,1,84,92,M1,0,1,1,1,22,0,22,0,,,,,,,,,,,,,,,,,,,,,,,,,,,,,,,,,,,,,,,,,,,,,,,,,,,,,,,,,,,,,,,,,,,,,,,,,,,,,,,,,,,,,,,,,,,,,,,0.011540372618128458,None,95,4,0,657.0736935145287,None,657.0736935145287,None,space,657.0736935145287,None,657.0736935145287,None,657.0736935145287,None,657.0736935145287,None,659.140352815527,None,0.010950213513751805,None,100,4,659.5570769887458,None,659.5570769887458,None,659.5570769887458,None,659.5570769887458,None,661.6236626330574,None,0.28059605163934975,,,,,,,045,002,es,2020_Feb_19_1016,Neighborhood,3.2.4,60.013587301123295,
Faces\faces\M1.jpg,0.3,1,84,92,M1,0,1,1,1,23,0,23,0,,,,,,,,,,,,,,,,,,,,,,,,,,,,,,,,,,,,,,,,,,,,,,,,,,,,,,,,,,,,,,,,,,,,,,,,,,,,,,,,,,,,,,,,,,,,,,,0.012548623978545947,None,95,4,1,664.573678119074,None,664.573678119074,None,None,664.573678119074,None,664.573678119074,None,664.573678119074,None,664.573678119074,None,666.6403688147252,None,0.009717671507132764,None,100,4,667.0570217462309,None,667.0570217462309,None,667.0570217462309,None,667.0570217462309,None,669.1237058007055,None,,,,,,,,045,002,es,2020_Feb_19_1016,Neighborhood,3.2.4,60.013587301123295,
Faces\faces\M1.jpg,0.3,1,84,92,M1,0,1,1,1,24,0,24,0,,,,,,,,,,,,,,,,,,,,,,,,,,,,,,,,,,,,,,,,,,,,,,,,,,,,,,,,,,,,,,,,,,,,,,,,,,,,,,,,,,,,,,,,,,,,,,,0.0111461282244818,None,95,4,1,672.0736666479506,None,672.0736666479506,None,space,672.0736666479506,None,672.0736666479506,None,672.0736666479506,None,672.0736666479506,None,674.1403262508206,None,0.010989456830429845,None,100,4,674.556982201043,None,674.556982201043,None,674.556982201043,None,674.556982201043,None,676.6236973482992,None,0.39853972600940324,,,,,,,045,002,es,2020_Feb_19_1016,Neighborhood,3.2.4,60.013587301123295,
Faces\faces\M1.jpg,0.3,1,84,92,M1,0,1,1,1,25,0,25,0,,,,,,,,,,,,,,,,,,,,,,,,,,,,,,,,,,,,,,,,,,,,,,,,,,,,,,,,,,,,,,,,,,,,,,,,,,,,,,,,,,,,,,,,,,,,,,,0.011529807110491674,None,95,4,1,679.5736772134592,None,679.5736772134592,None,None,679.5736772134592,None,679.5736772134592,None,679.5736772134592,None,679.5736772134592,None,681.640313874082,None,0.011057377954784897,None,100,4,682.0569761636098,None,682.0569761636098,None,682.0569761636098,None,682.0569761636098,None,684.1236840659458,None,,,,,,,,045,002,es,2020_Feb_19_1016,Neighborhood,3.2.4,60.013587301123295,
Faces\faces\M1.jpg,0.3,1,84,92,M1,0,1,1,1,26,0,26,0,,,,,,,,,,,,,,,,,,,,,,,,,,,,,,,,,,,,,,,,,,,,,,,,,,,,,,,,,,,,,,,,,,,,,,,,,,,,,,,,,,,,,,,,,,,,,,,0.01187907262601584,None,95,4,0,687.0736431019609,None,687.0736431019609,None,None,687.0736431019609,None,687.0736431019609,None,687.0736431019609,None,687.0736431019609,None,689.1402990823708,None,0.009872229799384513,None,100,4,689.5569674093313,None,689.5569674093313,None,689.5569674093313,None,689.5569674093313,None,691.6236858771758,None,,,,,,,,045,002,es,2020_Feb_19_1016,Neighborhood,3.2.4,60.013587301123295,
Faces\faces\M1.jpg,0.3,1,84,92,M1,0,1,1,1,27,0,27,0,,,,,,,,,,,,,,,,,,,,,,,,,,,,,,,,,,,,,,,,,,,,,,,,,,,,,,,,,,,,,,,,,,,,,,,,,,,,,,,,,,,,,,,,,,,,,,,0.012453534403903177,None,95,4,0,694.5736289139927,None,694.5736289139927,None,None,694.5736289139927,None,694.5736289139927,None,694.5736289139927,None,694.5736289139927,None,696.6402891206058,None,0.010046409749975282,None,100,4,697.0569517120048,None,697.0569517120048,None,697.0569517120048,None,697.0569517120048,None,699.1236581049825,None,,,,,,,,045,002,es,2020_Feb_19_1016,Neighborhood,3.2.4,60.013587301123295,
Faces\faces\M1.jpg,0.3,1,84,92,M1,0,1,1,1,28,0,28,0,,,,,,,,,,,,,,,,,,,,,,,,,,,,,,,,,,,,,,,,,,,,,,,,,,,,,,,,,,,,,,,,,,,,,,,,,,,,,,,,,,,,,,,,,,,,,,,0.012789517566943687,None,95,4,0,702.0736165372546,None,702.0736165372546,None,space,702.0736165372546,None,702.0736165372546,None,702.0736165372546,None,702.0736165372546,None,704.1402755363806,None,0.010870217522551684,None,100,4,704.5569393352666,None,704.5569393352666,None,704.5569393352666,None,704.5569393352666,None,706.6237290448239,None,0.6303880318750998,,,,,,,045,002,es,2020_Feb_19_1016,Neighborhood,3.2.4,60.013587301123295,
Faces\faces\M1.jpg,0.3,1,84,92,M1,0,1,1,1,29,0,29,0,,,,,,,,,,,,,,,,,,,,,,,,,,,,,,,,,,,,,,,,,,,,,,,,,,,,,,,,,,,,,,,,,,,,,,,,,,,,,,,,,,,,,,,,,,,,,,,0.011361362721345358,None,95,4,1,709.5736126129227,None,709.5736126129227,None,None,709.5736126129227,None,709.5736126129227,None,709.5736126129227,None,709.5736126129227,None,711.6402830831726,None,0.010083539964853117,None,100,4,712.0569088462285,None,712.0569088462285,None,712.0569088462285,None,712.0569088462285,None,714.1235916932164,None,,,,,,,,045,002,es,2020_Feb_19_1016,Neighborhood,3.2.4,60.013587301123295,
Faces\faces\M1.jpg,0.3,1,84,92,M1,0,1,1,1,30,0,30,0,,,,,,,,,,,,,,,,,,,,,,,,,,,,,,,,,,,,,,,,,,,,,,,,,,,,,,,,,,,,,,,,,,,,,,,,,,,,,,,,,,,,,,,,,,,,,,,0.011697647755681828,None,95,4,0,717.0735875575747,None,717.0735875575747,None,space,717.0735875575747,None,717.0735875575747,None,717.0735875575747,None,717.0735875575747,None,719.1402885168623,None,0.010280964033427153,None,100,4,719.556910053715,None,719.556910053715,None,719.556910053715,None,719.556910053715,None,721.62356150605,None,1.3053042473948153,,,,,,,045,002,es,2020_Feb_19_1016,Neighborhood,3.2.4,60.013587301123295,
Faces\faces\M1.jpg,0.3,1,84,92,M1,0,1,1,1,31,0,31,0,,,,,,,,,,,,,,,,,,,,,,,,,,,,,,,,,,,,,,,,,,,,,,,,,,,,,,,,,,,,,,,,,,,,,,,,,,,,,,,,,,,,,,,,,,,,,,,0.011236387852477492,None,95,4,0,724.5735788032962,None,724.5735788032962,None,space,724.5735788032962,None,724.5735788032962,None,724.5735788032962,None,724.5735788032962,None,726.6402737251506,None,0.009904831939365977,None,100,4,727.05690371441,None,727.05690371441,None,727.05690371441,None,727.05690371441,None,729.1235536573868,None,1.2612500022637505,,,,,,,045,002,es,2020_Feb_19_1016,Neighborhood,3.2.4,60.013587301123295,
Faces\faces\M1.jpg,0.3,1,84,92,M1,0,1,1,1,32,0,32,0,,,,,,,,,,,,,,,,,,,,,,,,,,,,,,,,,,,,,,,,,,,,,,,,,,,,,,,,,,,,,,,,,,,,,,,,,,,,,,,,,,,,,,,,,,,,,,,0.012573679326578713,None,95,4,1,732.0735634078414,None,732.0735634078414,None,None,732.0735634078414,None,732.0735634078414,None,732.0735634078414,None,732.0735634078414,None,734.1402604427976,None,0.010442465374126186,None,100,4,734.5569142799186,None,734.5569142799186,None,734.5569142799186,None,734.5569142799186,None,736.6235581854617,None,,,,,,,,045,002,es,2020_Feb_19_1016,Neighborhood,3.2.4,60.013587301123295,
Faces\faces\M1.jpg,0.3,1,84,92,M1,0,1,1,1,33,0,33,0,,,,,,,,,,,,,,,,,,,,,,,,,,,,,,,,,,,,,,,,,,,,,,,,,,,,,,,,,,,,,,,,,,,,,,,,,,,,,,,,,,,,,,,,,,,,,,,0.012235583062192745,None,95,4,1,739.5735594835096,None,739.5735594835096,None,None,739.5735594835096,None,739.5735594835096,None,739.5735594835096,None,739.5735594835096,None,741.6402495754178,None,0.010888027950841206,None,100,4,742.0568662823239,None,742.0568662823239,None,742.0568662823239,None,742.0568662823239,None,744.1235479218249,None,,,,,,,,045,002,es,2020_Feb_19_1016,Neighborhood,3.2.4,60.013587301123295,
Faces\faces\M1.jpg,0.3,1,84,92,M1,0,1,1,1,34,0,34,0,,,,,,,,,,,,,,,,,,,,,,,,,,,,,,,,,,,,,,,,,,,,,,,,,,,,,,,,,,,,,,,,,,,,,,,,,,,,,,,,,,,,,,,,,,,,,,,0.012605979594809469,None,95,4,1,747.0735706527612,None,747.0735706527612,None,space,747.0735706527612,None,747.0735706527612,None,747.0735706527612,None,747.0735706527612,None,749.140257424081,None,0.00941700732892059,None,100,4,749.5568671879387,None,749.5568671879387,None,749.5568671879387,None,749.5568671879387,None,751.6235328282419,None,0.26414525340032924,,,,,,,045,002,es,2020_Feb_19_1016,Neighborhood,3.2.4,60.013587301123295,
Faces\faces\M1.jpg,0.3,1,84,92,M1,0,1,1,1,35,0,35,0,,,,,,,,,,,,,,,,,,,,,,,,,,,,,,,,,,,,,,,,,,,,,,,,,,,,,,,,,,,,,,,,,,,,,,,,,,,,,,,,,,,,,,,,,,,,,,,0.011093300683569396,None,95,4,1,754.5735537479482,None,754.5735537479482,None,space,754.5735537479482,None,754.5735537479482,None,754.5735537479482,None,754.5735537479482,None,756.6401895029562,None,0.009888228997624537,None,100,4,757.0568484718956,None,757.0568484718956,None,757.0568484718956,None,757.0568484718956,None,759.1235026410754,None,0.42414508435194875,,,,,,,045,002,es,2020_Feb_19_1016,Neighborhood,3.2.4,60.013587301123295,
Faces\faces\M1.jpg,0.3,1,84,92,M1,0,1,1,1,36,0,36,0,,,,,,,,,,,,,,,,,,,,,,,,,,,,,,,,,,,,,,,,,,,,,,,,,,,,,,,,,,,,,,,,,,,,,,,,,,,,,,,,,,,,,,,,,,,,,,,0.011291630366940808,None,95,4,0,762.0735217495517,None,762.0735217495517,None,space,762.0735217495517,None,762.0735217495517,None,762.0735217495517,None,762.0735217495517,None,764.1401885973414,None,0.011074282768277044,None,100,4,764.5568732253719,None,764.5568732253719,None,764.5568732253719,None,764.5568732253719,None,766.6235074710221,None,0.32504967298200427,,,,,,,045,002,es,2020_Feb_19_1016,Neighborhood,3.2.4,60.013587301123295,
Faces\faces\M1.jpg,0.3,1,84,92,M1,0,1,1,1,37,0,37,0,,,,,,,,,,,,,,,,,,,,,,,,,,,,,,,,,,,,,,,,,,,,,,,,,,,,,,,,,,,,,,,,,,,,,,,,,,,,,,,,,,,,,,,,,,,,,,,0.012064119956903596,None,95,4,0,769.5735108821718,None,769.5735108821718,None,space,769.5735108821718,None,769.5735108821718,None,769.5735108821718,None,769.5735108821718,None,771.6401427128485,None,0.010624192116210907,None,100,4,772.0568626598638,None,772.0568626598638,None,772.0568626598638,None,772.0568626598638,None,774.1234941886687,None,0.31705309258450143,,,,,,,045,002,es,2020_Feb_19_1016,Neighborhood,3.2.4,60.013587301123295,
Faces\faces\M1.jpg,0.3,1,84,92,M1,0,1,1,1,38,0,38,0,,,,,,,,,,,,,,,,,,,,,,,,,,,,,,,,,,,,,,,,,,,,,,,,,,,,,,,,,,,,,,,,,,,,,,,,,,,,,,,,,,,,,,,,,,,,,,,0.011276234911747451,None,95,4,0,777.0734861286951,None,777.0734861286951,None,space,777.0734861286951,None,777.0734861286951,None,777.0734861286951,None,777.0734861286951,None,779.1401605232763,None,0.010995494263170258,None,100,4,779.5568502831256,None,779.5568502831256,None,779.5568502831256,None,779.5568502831256,None,781.6234803025723,None,0.397026443354207,,,,,,,045,002,es,2020_Feb_19_1016,Neighborhood,3.2.4,60.013587301123295,
Faces\faces\M1.jpg,0.3,1,84,92,M1,0,1,1,1,39,0,39,0,,,,,,,,,,,,,,,,,,,,,,,,,,,,,,,,,,,,,,,,,,,,,,,,,,,,,,,,,,,,,,,,,,,,,,,,,,,,,,,,,,,,,,,,,,,,,,,0.012001028778286127,None,95,4,1,784.5734752613153,None,784.5734752613153,None,None,784.5734752613153,None,784.5734752613153,None,784.5734752613153,None,784.5734752613153,None,786.6401369772866,None,0.010592797463232273,None,100,4,787.0568683954252,None,787.0568683954252,None,787.0568683954252,None,787.0568683954252,None,789.1234809063153,None,,,,,,,,045,002,es,2020_Feb_19_1016,Neighborhood,3.2.4,60.013587301123295,
Faces\faces\M2.jpg,0.7,-1,85,93,M2,0,2,2,2,0,0,0,0,,,,,,,,,,,,,,,,,,,,,,,,,,,,,,,,,,,,,,,,,,,,,,,,,,,,,,,,,,,,,,,,,,,,,,,,,,,,,,,,,,,,,,,0.015888532077042328,None,85,4,794.1234570584538,None,794.1234570584538,None,0.0096340530553789,None,95,4,-1,795.306824473098,None,795.306824473098,None,space,795.306824473098,None,795.306824473098,None,795.306824473098,None,795.306824473098,None,797.3734889059147,None,0.010011996379944321,None,100,4,797.8067813054499,None,797.8067813054499,None,797.8067813054499,None,797.8067813054499,None,799.8734895096577,None,1.1465611081830502,0.007852406491110742,None,92,4,792.0568575280454,None,045,002,es,2020_Feb_19_1016,Neighborhood,3.2.4,60.013587301123295,
Faces\faces\M2.jpg,0.7,-1,85,93,M2,0,2,2,2,1,0,1,0,,,,,,,,,,,,,,,,,,,,,,,,,,,,,,,,,,,,,,,,,,,,,,,,,,,,,,,,,,,,,,,,,,,,,,,,,,,,,,,,,,,,,,,,,,,,,,,0.01098734372862964,None,95,4,0,802.8234440175979,None,802.8234440175979,None,None,802.8234440175979,None,802.8234440175979,None,802.8234440175979,None,802.8234440175979,None,804.8901006017509,None,0.01074826136982665,None,100,4,805.3067653062521,None,805.3067653062521,None,805.3067653062521,None,805.3067653062521,None,807.3734723029729,None,,,,,,,,045,002,es,2020_Feb_19_1016,Neighborhood,3.2.4,60.013587301123295,
Faces\faces\M2.jpg,0.7,-1,85,93,M2,0,2,2,2,2,0,2,0,,,,,,,,,,,,,,,,,,,,,,,,,,,,,,,,,,,,,,,,,,,,,,,,,,,,,,,,,,,,,,,,,,,,,,,,,,,,,,,,,,,,,,,,,,,,,,,0.011366192667537689,None,95,4,0,810.3234316408598,None,810.3234316408598,None,None,810.3234316408598,None,810.3234316408598,None,810.3234316408598,None,810.3234316408598,None,812.3900945643177,None,0.01190050551394961,None,100,4,812.8067764755037,None,812.8067764755037,None,812.8067764755037,None,812.8067764755037,None,814.8734575112612,None,,,,,,,,045,002,es,2020_Feb_19_1016,Neighborhood,3.2.4,60.013587301123295,
Faces\faces\M2.jpg,0.7,-1,85,93,M2,0,2,2,2,3,0,3,0,,,,,,,,,,,,,,,,,,,,,,,,,,,,,,,,,,,,,,,,,,,,,,,,,,,,,,,,,,,,,,,,,,,,,,,,,,,,,,,,,,,,,,,,,,,,,,,0.010934818059013196,None,95,4,-1,817.823421377223,None,817.823421377223,None,None,817.823421377223,None,817.823421377223,None,817.823421377223,None,817.823421377223,None,819.8900806782212,None,0.01077241110306204,None,100,4,820.3067420621337,None,820.3067420621337,None,820.3067420621337,None,820.3067420621337,None,822.3734662655397,None,,,,,,,,045,002,es,2020_Feb_19_1016,Neighborhood,3.2.4,60.013587301123295,
Faces\faces\M2.jpg,0.7,-1,85,93,M2,0,2,2,2,4,0,4,0,,,,,,,,,,,,,,,,,,,,,,,,,,,,,,,,,,,,,,,,,,,,,,,,,,,,,,,,,,,,,,,,,,,,,,,,,,,,,,,,,,,,,,,,,,,,,,,0.011296460313587886,None,95,4,-1,825.3234041705382,None,825.3234041705382,None,space,825.3234041705382,None,825.3234041705382,None,825.3234041705382,None,825.3234041705382,None,827.3900655846378,None,0.010888027950841206,None,100,4,827.8067378359306,None,827.8067378359306,None,827.8067378359306,None,827.8067378359306,None,829.8734406064482,None,0.8498774099170987,,,,,,,045,002,es,2020_Feb_19_1016,Neighborhood,3.2.4,60.013587301123295,
Faces\faces\M2.jpg,0.7,-1,85,93,M2,0,2,2,2,5,0,5,0,,,,,,,,,,,,,,,,,,,,,,,,,,,,,,,,,,,,,,,,,,,,,,,,,,,,,,,,,,,,,,,,,,,,,,,,,,,,,,,,,,,,,,,,,,,,,,,0.011944880649025436,None,95,4,0,832.8234050761534,None,832.8234050761534,None,None,832.8234050761534,None,832.8234050761534,None,832.8234050761534,None,832.8234050761534,None,834.8900785651194,None,0.010396882752957026,None,100,4,835.3067082525072,None,835.3067082525072,None,835.3067082525072,None,835.3067082525072,None,837.3733790246288,None,,,,,,,,045,002,es,2020_Feb_19_1016,Neighborhood,3.2.4,60.013587301123295,
Faces\faces\M2.jpg,0.7,-1,85,93,M2,0,2,2,2,6,0,6,0,,,,,,,,,,,,,,,,,,,,,,,,,,,,,,,,,,,,,,,,,,,,,,,,,,,,,,,,,,,,,,,,,,,,,,,,,,,,,,,,,,,,,,,,,,,,,,,0.011102054961156682,None,95,4,0,840.3233824357785,None,840.3233824357785,None,None,840.3233824357785,None,840.3233824357785,None,840.3233824357785,None,840.3233824357785,None,842.3900613584347,None,0.010619362170018576,None,100,4,842.806687121491,None,842.806687121491,None,842.806687121491,None,842.806687121491,None,844.8733500449489,None,,,,,,,,045,002,es,2020_Feb_19_1016,Neighborhood,3.2.4,60.013587301123295,
Faces\faces\M2.jpg,0.7,-1,85,93,M2,0,2,2,2,7,0,7,0,,,,,,,,,,,,,,,,,,,,,,,,,,,,,,,,,,,,,,,,,,,,,,,,,,,,,,,,,,,,,,,,,,,,,,,,,,,,,,,,,,,,,,,,,,,,,,,0.011792133586823184,None,95,4,0,847.8234014536934,None,847.8234014536934,None,None,847.8234014536934,None,847.8234014536934,None,847.8234014536934,None,847.8234014536934,None,849.8900658865095,None,0.011306120206427295,None,100,4,850.3066904420789,None,850.3066904420789,None,850.3066904420789,None,850.3066904420789,None,852.3733669497619,None,,,,,,,,045,002,es,2020_Feb_19_1016,Neighborhood,3.2.4,60.013587301123295,
Faces\faces\M2.jpg,0.7,-1,85,93,M2,0,2,2,2,8,0,8,0,,,,,,,,,,,,,,,,,,,,,,,,,,,,,,,,,,,,,,,,,,,,,,,,,,,,,,,,,,,,,,,,,,,,,,,,,,,,,,,,,,,,,,,,,,,,,,,0.0120943071228794,None,95,4,0,855.3233507392538,None,855.3233507392538,None,None,855.3233507392538,None,855.3233507392538,None,855.3233507392538,None,855.3233507392538,None,857.3900613584347,None,0.010670378480881482,None,100,4,857.8066753484959,None,857.8066753484959,None,857.8066753484959,None,857.8066753484959,None,859.8733428000287,None,,,,,,,,045,002,es,2020_Feb_19_1016,Neighborhood,3.2.4,60.013587301123295,
Faces\faces\M2.jpg,0.7,-1,85,93,M2,0,2,2,2,9,0,9,0,,,,,,,,,,,,,,,,,,,,,,,,,,,,,,,,,,,,,,,,,,,,,,,,,,,,,,,,,,,,,,,,,,,,,,,,,,,,,,,,,,,,,,,,,,,,,,,0.011697949627432536,None,95,4,0,862.8233398718735,None,862.8233398718735,None,None,862.8233398718735,None,862.8233398718735,None,862.8233398718735,None,862.8233398718735,None,864.890039623675,None,0.011173296673860023,None,100,4,865.3066617642708,None,865.3066617642708,None,865.3066617642708,None,865.3066617642708,None,867.3733213671408,None,,,,,,,,045,002,es,2020_Feb_19_1016,Neighborhood,3.2.4,60.013587301123295,
Faces\faces\M2.jpg,0.7,-1,85,93,M2,0,2,2,2,10,0,10,0,,,,,,,,,,,,,,,,,,,,,,,,,,,,,,,,,,,,,,,,,,,,,,,,,,,,,,,,,,,,,,,,,,,,,,,,,,,,,,,,,,,,,,,,,,,,,,,0.011043491858345078,None,95,4,-1,870.323340475617,None,870.323340475617,None,None,870.323340475617,None,870.323340475617,None,870.323340475617,None,870.323340475617,None,872.3900996961361,None,0.01054208302321058,None,100,4,872.8066961776408,None,872.8066961776408,None,872.8066961776408,None,872.8066961776408,None,874.8733159334506,None,,,,,,,,045,002,es,2020_Feb_19_1016,Neighborhood,3.2.4,60.013587301123295,
Faces\faces\M2.jpg,0.7,-1,85,93,M2,0,2,2,2,11,0,11,0,,,,,,,,,,,,,,,,,,,,,,,,,,,,,,,,,,,,,,,,,,,,,,,,,,,,,,,,,,,,,,,,,,,,,,,,,,,,,,,,,,,,,,,,,,,,,,,0.012106080117973761,None,95,4,-1,877.8233247782905,None,877.8233247782905,None,space,877.8233247782905,None,877.8233247782905,None,877.8233247782905,None,877.8233247782905,None,879.8899849849035,None,0.01194125818892644,None,100,4,880.3066385201528,None,880.3066385201528,None,880.3066385201528,None,880.3066385201528,None,882.3733050660708,None,0.41753047243537367,,,,,,,045,002,es,2020_Feb_19_1016,Neighborhood,3.2.4,60.013587301123295,
Faces\faces\M2.jpg,0.7,-1,85,93,M2,0,2,2,2,12,0,12,0,,,,,,,,,,,,,,,,,,,,,,,,,,,,,,,,,,,,,,,,,,,,,,,,,,,,,,,,,,,,,,,,,,,,,,,,,,,,,,,,,,,,,,,,,,,,,,,0.01101722902376423,None,95,4,-1,885.3233003266855,None,885.3233003266855,None,None,885.3233003266855,None,885.3233003266855,None,885.3233003266855,None,885.3233003266855,None,887.3899771362403,None,0.01055928970754394,None,100,4,887.8066693110627,None,887.8066693110627,None,887.8066693110627,None,887.8066693110627,None,889.8732905762308,None,,,,,,,,045,002,es,2020_Feb_19_1016,Neighborhood,3.2.4,60.013587301123295,
Faces\faces\M2.jpg,0.7,-1,85,93,M2,0,2,2,2,13,0,13,0,,,,,,,,,,,,,,,,,,,,,,,,,,,,,,,,,,,,,,,,,,,,,,,,,,,,,,,,,,,,,,,,,,,,,,,,,,,,,,,,,,,,,,,,,,,,,,,0.012068044288298552,None,95,4,0,892.823316024012,None,892.823316024012,None,None,892.823316024012,None,892.823316024012,None,892.823316024012,None,892.823316024012,None,894.8899375910523,None,0.011774625030739116,None,100,4,895.3066804803143,None,895.3066804803143,None,895.3066804803143,None,895.3066804803143,None,897.3732757845191,None,,,,,,,,045,002,es,2020_Feb_19_1016,Neighborhood,3.2.4,60.013587301123295,
Faces\faces\M2.jpg,0.7,-1,85,93,M2,0,2,2,2,14,0,14,0,,,,,,,,,,,,,,,,,,,,,,,,,,,,,,,,,,,,,,,,,,,,,,,,,,,,,,,,,,,,,,,,,,,,,,,,,,,,,,,,,,,,,,,,,,,,,,,0.011925560862437123,None,95,4,0,900.3232740638509,None,900.3232740638509,None,None,900.3232740638509,None,900.3232740638509,None,900.3232740638509,None,900.3232740638509,None,902.3899306480039,None,0.010482916177352308,None,100,4,902.8066430482277,None,902.8066430482277,None,902.8066430482277,None,902.8066430482277,None,904.8732664264976,None,,,,,,,,045,002,es,2020_Feb_19_1016,Neighborhood,3.2.4,60.013587301123295,
Faces\faces\M2.jpg,0.7,-1,85,93,M2,0,2,2,2,15,0,15,0,,,,,,,,,,,,,,,,,,,,,,,,,,,,,,,,,,,,,,,,,,,,,,,,,,,,,,,,,,,,,,,,,,,,,,,,,,,,,,,,,,,,,,,,,,,,,,,0.013061805808774807,None,95,4,0,907.8232680264173,None,907.8232680264173,None,None,907.8232680264173,None,907.8232680264173,None,907.8232680264173,None,907.8232680264173,None,909.8899403078972,None,0.01169976085793678,None,100,4,910.3066551230945,None,910.3066551230945,None,910.3066551230945,None,910.3066551230945,None,912.3732492198128,None,,,,,,,,045,002,es,2020_Feb_19_1016,Neighborhood,3.2.4,60.013587301123295,
Faces\faces\M2.jpg,0.7,-1,85,93,M2,0,2,2,2,16,0,16,0,,,,,,,,,,,,,,,,,,,,,,,,,,,,,,,,,,,,,,,,,,,,,,,,,,,,,,,,,,,,,,,,,,,,,,,,,,,,,,,,,,,,,,,,,,,,,,,0.012838420776915882,None,95,4,0,915.3232481028876,None,915.3232481028876,None,None,915.3232481028876,None,915.3232481028876,None,915.3232481028876,None,915.3232481028876,None,917.3899131394473,None,0.01038993970496449,None,100,4,917.806573617745,None,917.806573617745,None,917.806573617745,None,917.806573617745,None,919.8732359374594,None,,,,,,,,045,002,es,2020_Feb_19_1016,Neighborhood,3.2.4,60.013587301123295,
Faces\faces\M2.jpg,0.7,-1,85,93,M2,0,2,2,2,17,0,17,0,,,,,,,,,,,,,,,,,,,,,,,,,,,,,,,,,,,,,,,,,,,,,,,,,,,,,,,,,,,,,,,,,,,,,,,,,,,,,,,,,,,,,,,,,,,,,,,0.011043189986139623,None,95,4,0,922.823235122406,None,922.823235122406,None,None,922.823235122406,None,922.823235122406,None,922.823235122406,None,922.823235122406,None,924.889892914046,None,0.011550938126674737,None,100,4,925.3066113517029,None,925.3066113517029,None,925.3066113517029,None,925.3066113517029,None,927.3732609928079,None,,,,,,,,045,002,es,2020_Feb_19_1016,Neighborhood,3.2.4,60.013587301123295,
Faces\faces\M2.jpg,0.7,-1,85,93,M2,0,2,2,2,18,0,18,0,,,,,,,,,,,,,,,,,,,,,,,,,,,,,,,,,,,,,,,,,,,,,,,,,,,,,,,,,,,,,,,,,,,,,,,,,,,,,,,,,,,,,,,,,,,,,,,0.013256211160296516,None,95,4,0,930.3232867424608,None,930.3232867424608,None,None,930.3232867424608,None,930.3232867424608,None,930.3232867424608,None,930.3232867424608,None,932.3898732923876,None,0.011290724752143433,None,100,4,932.806516564,None,932.806516564,None,932.806516564,None,932.806516564,None,934.8732151083145,None,,,,,,,,045,002,es,2020_Feb_19_1016,Neighborhood,3.2.4,60.013587301123295,
Faces\faces\M2.jpg,0.7,-1,85,93,M2,0,2,2,2,19,0,19,0,,,,,,,,,,,,,,,,,,,,,,,,,,,,,,,,,,,,,,,,,,,,,,,,,,,,,,,,,,,,,,,,,,,,,,,,,,,,,,,,,,,,,,,,,,,,,,,0.01202910284337122,None,95,4,0,937.823249612246,None,937.823249612246,None,None,937.823249612246,None,937.823249612246,None,937.823249612246,None,937.823249612246,None,939.8898726886441,None,0.011564522351818596,None,100,4,940.306541015605,None,940.306541015605,None,940.306541015605,None,940.306541015605,None,942.3732449936097,None,,,,,,,,045,002,es,2020_Feb_19_1016,Neighborhood,3.2.4,60.013587301123295,
Faces\faces\M2.jpg,0.7,-1,85,93,M2,0,2,2,2,20,0,20,0,,,,,,,,,,,,,,,,,,,,,,,,,,,,,,,,,,,,,,,,,,,,,,,,,,,,,,,,,,,,,,,,,,,,,,,,,,,,,,,,,,,,,,,,,,,,,,,0.012218074505199183,None,95,4,0,945.3232375373796,None,945.3232375373796,None,None,945.3232375373796,None,945.3232375373796,None,945.3232375373796,None,945.3232375373796,None,947.3898597081625,None,0.011196842663593998,None,100,4,947.8065195827166,None,947.8065195827166,None,947.8065195827166,None,947.8065195827166,None,949.8732090708813,None,,,,,,,,045,002,es,2020_Feb_19_1016,Neighborhood,3.2.4,60.013587301123295,
Faces\faces\M2.jpg,0.7,-1,85,93,M2,0,2,2,2,21,0,21,0,,,,,,,,,,,,,,,,,,,,,,,,,,,,,,,,,,,,,,,,,,,,,,,,,,,,,,,,,,,,,,,,,,,,,,,,,,,,,,,,,,,,,,,,,,,,,,,0.012923850457809749,None,95,4,0,952.823259574011,None,952.823259574011,None,None,952.823259574011,None,952.823259574011,None,952.823259574011,None,952.823259574011,None,954.8898431052212,None,0.010512499600281444,None,100,4,955.3065056966202,None,955.3065056966202,None,955.3065056966202,None,955.3065056966202,None,957.3731689219499,None,,,,,,,,045,002,es,2020_Feb_19_1016,Neighborhood,3.2.4,60.013587301123295,
Faces\faces\M2.jpg,0.7,-1,85,93,M2,0,2,2,2,22,0,22,0,,,,,,,,,,,,,,,,,,,,,,,,,,,,,,,,,,,,,,,,,,,,,,,,,,,,,,,,,,,,,,,,,,,,,,,,,,,,,,,,,,,,,,,,,,,,,,,0.012079817283392913,None,95,4,0,960.3232562534226,None,960.3232562534226,None,None,960.3232562534226,None,960.3232562534226,None,960.3232562534226,None,960.3232562534226,None,962.3898850653827,None,0.010715961101595894,None,100,4,962.8064909049085,None,962.8064909049085,None,962.8064909049085,None,962.8064909049085,None,964.8731529227516,None,,,,,,,,045,002,es,2020_Feb_19_1016,Neighborhood,3.2.4,60.013587301123295,
Faces\faces\M2.jpg,0.7,-1,85,93,M2,0,2,2,2,23,0,23,0,,,,,,,,,,,,,,,,,,,,,,,,,,,,,,,,,,,,,,,,,,,,,,,,,,,,,,,,,,,,,,,,,,,,,,,,,,,,,,,,,,,,,,,,,,,,,,,0.01166444187219895,None,95,4,0,967.82315603203,None,967.82315603203,None,None,967.82315603203,None,967.82315603203,None,967.82315603203,None,967.82315603203,None,969.8898192573597,None,0.011352608443303325,None,100,4,970.3064797356569,None,970.3064797356569,None,970.3064797356569,None,970.3064797356569,None,972.3731489984202,None,,,,,,,,045,002,es,2020_Feb_19_1016,Neighborhood,3.2.4,60.013587301123295,
Faces\faces\M2.jpg,0.7,-1,85,93,M2,0,2,2,2,24,0,24,0,,,,,,,,,,,,,,,,,,,,,,,,,,,,,,,,,,,,,,,,,,,,,,,,,,,,,,,,,,,,,,,,,,,,,,,,,,,,,,,,,,,,,,,,,,,,,,,0.012079213540346245,None,95,4,-1,975.3231493908534,None,975.3231493908534,None,None,975.3231493908534,None,975.3231493908534,None,975.3231493908534,None,975.3231493908534,None,977.389827709766,None,0.011612218074787961,None,100,4,977.806451963464,None,977.806451963464,None,977.806451963464,None,977.806451963464,None,979.8731405460135,None,,,,,,,,045,002,es,2020_Feb_19_1016,Neighborhood,3.2.4,60.013587301123295,
Faces\faces\M2.jpg,0.7,-1,85,93,M2,0,2,2,2,25,0,25,0,,,,,,,,,,,,,,,,,,,,,,,,,,,,,,,,,,,,,,,,,,,,,,,,,,,,,,,,,,,,,,,,,,,,,,,,,,,,,,,,,,,,,,,,,,,,,,,0.011665649358747032,None,95,4,-1,982.8231454665215,None,982.8231454665215,None,None,982.8231454665215,None,982.8231454665215,None,982.8231454665215,None,982.8231454665215,None,984.8897884664498,None,0.01031779237655428,None,100,4,985.3064610196138,None,985.3064610196138,None,985.3064610196138,None,985.3064610196138,None,987.3731200187403,None,,,,,,,,045,002,es,2020_Feb_19_1016,Neighborhood,3.2.4,60.013587301123295,
Faces\faces\M2.jpg,0.7,-1,85,93,M2,0,2,2,2,26,0,26,0,,,,,,,,,,,,,,,,,,,,,,,,,,,,,,,,,,,,,,,,,,,,,,,,,,,,,,,,,,,,,,,,,,,,,,,,,,,,,,,,,,,,,,,,,,,,,,,0.012014311131679278,None,95,4,0,990.3231222224035,None,990.3231222224035,None,None,990.3231222224035,None,990.3231222224035,None,990.3231222224035,None,990.3231222224035,None,992.38976492046,None,0.011551239998425444,None,100,4,992.8064492466192,None,992.8064492466192,None,992.8064492466192,None,992.8064492466192,None,994.8731100569753,None,,,,,,,,045,002,es,2020_Feb_19_1016,Neighborhood,3.2.4,60.013587301123295,
Faces\faces\M2.jpg,0.7,-1,85,93,M2,0,2,2,2,27,0,27,0,,,,,,,,,,,,,,,,,,,,,,,,,,,,,,,,,,,,,,,,,,,,,,,,,,,,,,,,,,,,,,,,,,,,,,,,,,,,,,,,,,,,,,,,,,,,,,,0.011614331175678672,None,95,4,-1,997.8231059213335,None,997.8231059213335,None,None,997.8231059213335,None,997.8231059213335,None,997.8231059213335,None,997.8231059213335,None,999.8897646185883,None,0.011289215393389895,None,100,4,1000.3064700757641,None,1000.3064700757641,None,1000.3064700757641,None,1000.3064700757641,None,1002.3731200187403,None,,,,,,,,045,002,es,2020_Feb_19_1016,Neighborhood,3.2.4,60.013587301123295,
Faces\faces\M2.jpg,0.7,-1,85,93,M2,0,2,2,2,28,0,28,0,,,,,,,,,,,,,,,,,,,,,,,,,,,,,,,,,,,,,,,,,,,,,,,,,,,,,,,,,,,,,,,,,,,,,,,,,,,,,,,,,,,,,,,,,,,,,,,0.011943673162022606,None,95,4,0,1005.3230932427236,None,1005.3230932427236,None,None,1005.3230932427236,None,1005.3230932427236,None,1005.3230932427236,None,1005.3230932427236,None,1007.3897552605667,None,0.011461584114385914,None,100,4,1007.8064266062443,None,1007.8064266062443,None,1007.8064266062443,None,1007.8064266062443,None,1009.8730795679371,None,,,,,,,,045,002,es,2020_Feb_19_1016,Neighborhood,3.2.4,60.013587301123295,
Faces\faces\M2.jpg,0.7,-1,85,93,M2,0,2,2,2,29,0,29,0,,,,,,,,,,,,,,,,,,,,,,,,,,,,,,,,,,,,,,,,,,,,,,,,,,,,,,,,,,,,,,,,,,,,,,,,,,,,,,,,,,,,,,,,,,,,,,,0.01250877691882124,None,95,4,-1,1012.8230775453972,None,1012.8230775453972,None,None,1012.8230775453972,None,1012.8230775453972,None,1012.8230775453972,None,1012.8230775453972,None,1014.8897250734003,None,0.01007388007155896,None,100,4,1015.3064018527675,None,1015.3064018527675,None,1015.3064018527675,None,1015.3064018527675,None,1017.3730702099156,None,,,,,,,,045,002,es,2020_Feb_19_1016,Neighborhood,3.2.4,60.013587301123295,
Faces\faces\M2.jpg,0.7,-1,85,93,M2,0,2,2,2,30,0,30,0,,,,,,,,,,,,,,,,,,,,,,,,,,,,,,,,,,,,,,,,,,,,,,,,,,,,,,,,,,,,,,,,,,,,,,,,,,,,,,,,,,,,,,,,,,,,,,,0.012877362221843214,None,95,4,-1,1020.3230645649155,None,1020.3230645649155,None,None,1020.3230645649155,None,1020.3230645649155,None,1020.3230645649155,None,1020.3230645649155,None,1022.3897277902452,None,0.011440151225997397,None,100,4,1022.8064148332492,None,1022.8064148332492,None,1022.8064148332492,None,1022.8064148332492,None,1024.8730548144608,None,,,,,,,,045,002,es,2020_Feb_19_1016,Neighborhood,3.2.4,60.013587301123295,
Faces\faces\M2.jpg,0.7,-1,85,93,M2,0,2,2,2,31,0,31,0,,,,,,,,,,,,,,,,,,,,,,,,,,,,,,,,,,,,,,,,,,,,,,,,,,,,,,,,,,,,,,,,,,,,,,,,,,,,,,,,,,,,,,,,,,,,,,,0.013125198858233489,None,95,4,0,1027.8230500750756,None,1027.8230500750756,None,None,1027.8230500750756,None,1027.8230500750756,None,1027.8230500750756,None,1027.8230500750756,None,1029.8897510343631,None,0.010039466701528,None,100,4,1030.306377401163,None,1030.306377401163,None,1030.306377401163,None,1030.306377401163,None,1032.3730373059043,None,,,,,,,,045,002,es,2020_Feb_19_1016,Neighborhood,3.2.4,60.013587301123295,
Faces\faces\M2.jpg,0.7,-1,85,93,M2,0,2,2,2,32,0,32,0,,,,,,,,,,,,,,,,,,,,,,,,,,,,,,,,,,,,,,,,,,,,,,,,,,,,,,,,,,,,,,,,,,,,,,,,,,,,,,,,,,,,,,,,,,,,,,,0.011811151502115536,None,95,4,0,1035.3230422264119,None,1035.3230422264119,None,None,1035.3230422264119,None,1035.3230422264119,None,1035.3230422264119,None,1035.3230422264119,None,1037.3897027348971,None,0.010392052806309948,None,100,4,1037.8063641188096,None,1037.8063641188096,None,1037.8063641188096,None,1037.8063641188096,None,1039.8730137599146,None,,,,,,,,045,002,es,2020_Feb_19_1016,Neighborhood,3.2.4,60.013587301123295,
Faces\faces\M2.jpg,0.7,-1,85,93,M2,0,2,2,2,33,0,33,0,,,,,,,,,,,,,,,,,,,,,,,,,,,,,,,,,,,,,,,,,,,,,,,,,,,,,,,,,,,,,,,,,,,,,,,,,,,,,,,,,,,,,,,,,,,,,,,0.013068446985016635,None,95,4,-1,1042.8230247178558,None,1042.8230247178558,None,None,1042.8230247178558,None,1042.8230247178558,None,1042.8230247178558,None,1042.8230247178558,None,1044.889706055485,None,0.010017128197432612,None,100,4,1045.3063580813764,None,1045.3063580813764,None,1045.3063580813764,None,1045.3063580813764,None,1047.3730520976155,None,,,,,,,,045,002,es,2020_Feb_19_1016,Neighborhood,3.2.4,60.013587301123295,
Faces\faces\M2.jpg,0.7,-1,85,93,M2,0,2,2,2,34,0,34,0,,,,,,,,,,,,,,,,,,,,,,,,,,,,,,,,,,,,,,,,,,,,,,,,,,,,,,,,,,,,,,,,,,,,,,,,,,,,,,,,,,,,,,,,,,,,,,,0.011785492411036103,None,95,4,0,1050.323014454219,None,1050.323014454219,None,None,1050.323014454219,None,1050.323014454219,None,1050.323014454219,None,1050.323014454219,None,1052.3896740570885,None,0.01027070039708633,None,100,4,1052.8063348372584,None,1052.8063348372584,None,1052.8063348372584,None,1052.8063348372584,None,1054.8730427395944,None,,,,,,,,045,002,es,2020_Feb_19_1016,Neighborhood,3.2.4,60.013587301123295,
Faces\faces\M2.jpg,0.7,-1,85,93,M2,0,2,2,2,35,0,35,0,,,,,,,,,,,,,,,,,,,,,,,,,,,,,,,,,,,,,,,,,,,,,,,,,,,,,,,,,,,,,,,,,,,,,,,,,,,,,,,,,,,,,,,,,,,,,,,0.011916504713553877,None,95,4,0,1057.8230159635773,None,1057.8230159635773,None,None,1057.8230159635773,None,1057.8230159635773,None,1057.8230159635773,None,1057.8230159635773,None,1059.8896616803509,None,0.011633952834927186,None,100,4,1060.3063230642633,None,1060.3063230642633,None,1060.3063230642633,None,1060.3063230642633,None,1062.372988704566,None,,,,,,,,045,002,es,2020_Feb_19_1016,Neighborhood,3.2.4,60.013587301123295,
Faces\faces\M2.jpg,0.7,-1,85,93,M2,0,2,2,2,36,0,36,0,,,,,,,,,,,,,,,,,,,,,,,,,,,,,,,,,,,,,,,,,,,,,,,,,,,,,,,,,,,,,,,,,,,,,,,,,,,,,,,,,,,,,,,,,,,,,,,0.011675007381199975,None,95,4,0,1065.3229954363046,None,1065.3229954363046,None,None,1065.3229954363046,None,1065.3229954363046,None,1065.3229954363046,None,1065.3229954363046,None,1067.3896508129706,None,0.01022843836381071,None,100,4,1067.8063112912682,None,1067.8063112912682,None,1067.8063112912682,None,1067.8063112912682,None,1069.8730424377222,None,,,,,,,,045,002,es,2020_Feb_19_1016,Neighborhood,3.2.4,60.013587301123295,
Faces\faces\M2.jpg,0.7,-1,85,93,M2,0,2,2,2,37,0,37,0,,,,,,,,,,,,,,,,,,,,,,,,,,,,,,,,,,,,,,,,,,,,,,,,,,,,,,,,,,,,,,,,,,,,,,,,,,,,,,,,,,,,,,,,,,,,,,,0.011788812998929643,None,95,4,0,1072.8229770221328,None,1072.8229770221328,None,None,1072.8229770221328,None,1072.8229770221328,None,1072.8229770221328,None,1072.8229770221328,None,1074.8896580578908,None,0.011479998285722104,None,100,4,1075.3062823115883,None,1075.3062823115883,None,1075.3062823115883,None,1075.3062823115883,None,1077.372945536918,None,,,,,,,,045,002,es,2020_Feb_19_1016,Neighborhood,3.2.4,60.013587301123295,
Faces\faces\M2.jpg,0.7,-1,85,93,M2,0,2,2,2,38,0,38,0,,,,,,,,,,,,,,,,,,,,,,,,,,,,,,,,,,,,,,,,,,,,,,,,,,,,,,,,,,,,,,,,,,,,,,,,,,,,,,,,,,,,,,,,,,,,,,,0.01252568173185864,None,95,4,0,1080.3229640416507,None,1080.3229640416507,None,None,1080.3229640416507,None,1080.3229640416507,None,1080.3229640416507,None,1080.3229640416507,None,1082.389660774736,None,0.010154781677556457,None,100,4,1082.8063224605198,None,1082.8063224605198,None,1082.8063224605198,None,1082.8063224605198,None,1084.8729413107144,None,,,,,,,,045,002,es,2020_Feb_19_1016,Neighborhood,3.2.4,60.013587301123295,
Faces\faces\M2.jpg,0.7,-1,85,93,M2,0,2,2,2,39,0,39,0,,,,,,,,,,,,,,,,,,,,,,,,,,,,,,,,,,,,,,,,,,,,,,,,,,,,,,,,,,,,,,,,,,,,,,,,,,,,,,,,,,,,,,,,,,,,,,,0.01176556888003688,None,95,4,-1,1087.822946834966,None,1087.822946834966,None,None,1087.822946834966,None,1087.822946834966,None,1087.822946834966,None,1087.822946834966,None,1089.8896770758051,None,0.010262851733386924,None,100,4,1090.3062720479516,None,1090.3062720479516,None,1090.3062720479516,None,1090.3062720479516,None,1092.3729177647251,None,,,,,,,,045,002,es,2020_Feb_19_1016,Neighborhood,3.2.4,60.013587301123295,
Faces\faces\F1.jpg,0.7,1,79,87,F1,0,3,3,0,0,0,0,0,,,,,,,,,,,,,,,,,,,,,,,,,,,,,,,,,,,,,,,,,,,,,,,,,,,,,,,,,,,,,,,,,,,,,,,,,,,,,,,,,,,,,,,0.000589283676163177,None,79,4,1097.372931650821,None,1097.372931650821,None,0.009559490754327271,None,95,4,1,1098.8729346695386,None,1098.8729346695386,None,space,1098.8729346695386,None,1098.8729346695386,None,1098.8729346695386,None,1098.8729346695386,None,1100.9395686133162,None,0.010815578751135035,None,100,4,1101.3729029730134,None,1101.3729029730134,None,1101.3729029730134,None,1101.3729029730134,None,1103.4395828012844,None,1.3514347658347106,0.006322822766378522,None,93,4,1095.306263293674,None,045,002,es,2020_Feb_19_1016,Neighborhood,3.2.4,60.013587301123295,
Faces\faces\F1.jpg,0.7,1,79,87,F1,0,3,3,0,1,0,1,0,,,,,,,,,,,,,,,,,,,,,,,,,,,,,,,,,,,,,,,,,,,,,,,,,,,,,,,,,,,,,,,,,,,,,,,,,,,,,,,,,,,,,,,,,,,,,,,0.011425661386056163,None,95,4,0,1106.3895828918462,None,1106.3895828918462,None,space,1106.3895828918462,None,1106.3895828918462,None,1106.3895828918462,None,1106.3895828918462,None,1108.4562470227906,None,0.012200565948660369,None,100,4,1108.87290599173,None,1108.87290599173,None,1108.87290599173,None,1108.87290599173,None,1110.9395550290915,None,0.7478049401906901,,,,,,,045,002,es,2020_Feb_19_1016,Neighborhood,3.2.4,60.013587301123295,
Faces\faces\F1.jpg,0.7,1,79,87,F1,0,3,3,0,2,0,2,0,,,,,,,,,,,,,,,,,,,,,,,,,,,,,,,,,,,,,,,,,,,,,,,,,,,,,,,,,,,,,,,,,,,,,,,,,,,,,,,,,,,,,,,,,,,,,,,0.012262751512025716,None,95,4,0,1113.8895934573543,None,1113.8895934573543,None,None,1113.8895934573543,None,1113.8895934573543,None,1113.8895934573543,None,1113.8895934573543,None,1115.9562319292077,None,0.010733771530794911,None,100,4,1116.3729050861152,None,1116.3729050861152,None,1116.3729050861152,None,1116.3729050861152,None,1118.4395565384498,None,,,,,,,,045,002,es,2020_Feb_19_1016,Neighborhood,3.2.4,60.013587301123295,
Faces\faces\F1.jpg,0.7,1,79,87,F1,0,3,3,0,3,0,3,0,,,,,,,,,,,,,,,,,,,,,,,,,,,,,,,,,,,,,,,,,,,,,,,,,,,,,,,,,,,,,,,,,,,,,,,,,,,,,,,,,,,,,,,,,,,,,,,0.01139336111737066,None,95,4,1,1121.3895575346264,None,1121.3895575346264,None,space,1121.3895575346264,None,1121.3895575346264,None,1121.3895575346264,None,1121.3895575346264,None,1123.4562189487256,None,0.009924453597704996,None,100,4,1123.872874597077,None,1123.872874597077,None,1123.872874597077,None,1123.872874597077,None,1125.9395435579686,None,0.341702121493654,,,,,,,045,002,es,2020_Feb_19_1016,Neighborhood,3.2.4,60.013587301123295,
Faces\faces\F1.jpg,0.7,1,79,87,F1,0,3,3,0,4,0,4,0,,,,,,,,,,,,,,,,,,,,,,,,,,,,,,,,,,,,,,,,,,,,,,,,,,,,,,,,,,,,,,,,,,,,,,,,,,,,,,,,,,,,,,,,,,,,,,,0.012693522377958288,None,95,4,1,1128.8895587421125,None,1128.8895587421125,None,space,1128.8895587421125,None,1128.8895587421125,None,1128.8895587421125,None,1128.8895587421125,None,1130.9562002326825,None,0.010787806557345903,None,100,4,1131.3728682577716,None,1131.3728682577716,None,1131.3728682577716,None,1131.3728682577716,None,1133.4395514066314,None,0.39968261213198275,,,,,,,045,002,es,2020_Feb_19_1016,Neighborhood,3.2.4,60.013587301123295,
Faces\faces\F1.jpg,0.7,1,79,87,F1,0,3,3,0,5,0,5,0,,,,,,,,,,,,,,,,,,,,,,,,,,,,,,,,,,,,,,,,,,,,,,,,,,,,,,,,,,,,,,,,,,,,,,,,,,,,,,,,,,,,,,,,,,,,,,,0.011384003096281958,None,95,4,0,1136.3895330830214,None,1136.3895330830214,None,space,1136.3895330830214,None,1136.3895330830214,None,1136.3895330830214,None,1136.3895330830214,None,1138.4561709511313,None,0.010772411102152546,None,100,4,1138.8728365612474,None,1138.8728365612474,None,1138.8728365612474,None,1138.8728365612474,None,1140.9395565384498,None,0.3976229417630748,,,,,,,045,002,es,2020_Feb_19_1016,Neighborhood,3.2.4,60.013587301123295,
Faces\faces\F1.jpg,0.7,1,79,87,F1,0,3,3,0,6,0,6,0,,,,,,,,,,,,,,,,,,,,,,,,,,,,,,,,,,,,,,,,,,,,,,,,,,,,,,,,,,,,,,,,,,,,,,,,,,,,,,,,,,,,,,,,,,,,,,,0.012628318097085867,None,95,4,1,1143.8895146688496,None,1143.8895146688496,None,space,1143.8895146688496,None,1143.8895146688496,None,1143.8895146688496,None,1143.8895146688496,None,1145.9561540463178,None,0.009692314288258785,None,100,4,1146.3728537679322,None,1146.3728537679322,None,1146.3728537679322,None,1146.3728537679322,None,1148.4395734432633,None,0.7719314292480703,,,,,,,045,002,es,2020_Feb_19_1016,Neighborhood,3.2.4,60.013587301123295,
Faces\faces\F1.jpg,0.7,1,79,87,F1,0,3,3,0,7,0,7,0,,,,,,,,,,,,,,,,,,,,,,,,,,,,,,,,,,,,,,,,,,,,,,,,,,,,,,,,,,,,,,,,,,,,,,,,,,,,,,,,,,,,,,,,,,,,,,,0.012370821567856183,None,95,4,0,1151.3895394223268,None,1151.3895394223268,None,None,1151.3895394223268,None,1151.3895394223268,None,1151.3895394223268,None,1151.3895394223268,None,1153.4561878559448,None,0.010846067789316294,None,100,4,1153.8728262976106,None,1153.8728262976106,None,1153.8728262976106,None,1153.8728262976106,None,1155.9394940510151,None,,,,,,,,045,002,es,2020_Feb_19_1016,Neighborhood,3.2.4,60.013587301123295,
Faces\faces\F1.jpg,0.7,1,79,87,F1,0,3,3,0,8,0,8,0,,,,,,,,,,,,,,,,,,,,,,,,,,,,,,,,,,,,,,,,,,,,,,,,,,,,,,,,,,,,,,,,,,,,,,,,,,,,,,,,,,,,,,,,,,,,,,,0.01081105067714816,None,95,4,1,1158.8894914247317,None,1158.8894914247317,None,space,1158.8894914247317,None,1158.8894914247317,None,1158.8894914247317,None,1158.8894914247317,None,1160.9561911765327,None,0.01063445575255173,None,100,4,1161.372831429429,None,1161.372831429429,None,1161.372831429429,None,1161.372831429429,None,1163.4394789574321,None,0.3525039952719453,,,,,,,045,002,es,2020_Feb_19_1016,Neighborhood,3.2.4,60.013587301123295,
Faces\faces\F1.jpg,0.7,1,79,87,F1,0,3,3,0,9,0,9,0,,,,,,,,,,,,,,,,,,,,,,,,,,,,,,,,,,,,,,,,,,,,,,,,,,,,,,,,,,,,,,,,,,,,,,,,,,,,,,,,,,,,,,,,,,,,,,,0.01229897611119668,None,95,4,1,1166.3894784442505,None,1166.3894784442505,None,space,1166.3894784442505,None,1166.3894784442505,None,1166.3894784442505,None,1166.3894784442505,None,1168.4562844548768,None,0.010818597467732616,None,100,4,1168.8727991291603,None,1168.8727991291603,None,1168.8727991291603,None,1168.8727991291603,None,1170.9394931454003,None,0.36551436214813293,,,,,,,045,002,es,2020_Feb_19_1016,Neighborhood,3.2.4,60.013587301123295,
Faces\faces\F1.jpg,0.7,1,79,87,F1,0,3,3,0,10,0,10,0,,,,,,,,,,,,,,,,,,,,,,,,,,,,,,,,,,,,,,,,,,,,,,,,,,,,,,,,,,,,,,,,,,,,,,,,,,,,,,,,,,,,,,,,,,,,,,,0.012443874511518516,None,95,4,1,1173.8894591244639,None,1173.8894591244639,None,space,1173.8894591244639,None,1173.8894591244639,None,1173.8894591244639,None,1173.8894591244639,None,1175.956128689098,None,0.01152950523828622,None,100,4,1176.3729542911965,None,1176.3729542911965,None,1176.3729542911965,None,1176.3729542911965,None,1178.4394532983401,None,0.2854718827675242,,,,,,,045,002,es,2020_Feb_19_1016,Neighborhood,3.2.4,60.013587301123295,
Faces\faces\F1.jpg,0.7,1,79,87,F1,0,3,3,0,11,0,11,0,,,,,,,,,,,,,,,,,,,,,,,,,,,,,,,,,,,,,,,,,,,,,,,,,,,,,,,,,,,,,,,,,,,,,,,,,,,,,,,,,,,,,,,,,,,,,,,0.01112771405314561,None,95,4,1,1181.3894518795437,None,1181.3894518795437,None,space,1181.3894518795437,None,1181.3894518795437,None,1181.3894518795437,None,1181.3894518795437,None,1183.4560921626266,None,0.011722703103259846,None,100,4,1183.8728127133859,None,1183.8728127133859,None,1183.8728127133859,None,1183.8728127133859,None,1185.939422809302,None,0.37040015504044277,,,,,,,045,002,es,2020_Feb_19_1016,Neighborhood,3.2.4,60.013587301123295,
Faces\faces\F1.jpg,0.7,1,79,87,F1,0,3,3,0,12,0,12,0,,,,,,,,,,,,,,,,,,,,,,,,,,,,,,,,,,,,,,,,,,,,,,,,,,,,,,,,,,,,,,,,,,,,,,,,,,,,,,,,,,,,,,,,,,,,,,,0.012407649911438057,None,95,4,1,1188.889455803875,None,1188.889455803875,None,space,1188.889455803875,None,1188.889455803875,None,1188.889455803875,None,1188.889455803875,None,1190.95608552145,None,0.010912177683167101,None,100,4,1191.372826901354,None,1191.372826901354,None,1191.372826901354,None,1191.372826901354,None,1193.439428846736,None,0.3254393893012093,,,,,,,045,002,es,2020_Feb_19_1016,Neighborhood,3.2.4,60.013587301123295,
Faces\faces\F1.jpg,0.7,1,79,87,F1,0,3,3,0,13,0,13,0,,,,,,,,,,,,,,,,,,,,,,,,,,,,,,,,,,,,,,,,,,,,,,,,,,,,,,,,,,,,,,,,,,,,,,,,,,,,,,,,,,,,,,,,,,,,,,,0.011051944265091151,None,95,4,1,1196.3894328616284,None,1196.3894328616284,None,space,1196.3894328616284,None,1196.3894328616284,None,1196.3894328616284,None,1196.3894328616284,None,1198.4560912570118,None,0.010769392387373955,None,100,4,1198.8727466034911,None,1198.8727466034911,None,1198.8727466034911,None,1198.8727466034911,None,1200.9394119419226,None,0.2763484154456819,,,,,,,045,002,es,2020_Feb_19_1016,Neighborhood,3.2.4,60.013587301123295,
Faces\faces\F1.jpg,0.7,1,79,87,F1,0,3,3,0,14,0,14,0,,,,,,,,,,,,,,,,,,,,,,,,,,,,,,,,,,,,,,,,,,,,,,,,,,,,,,,,,,,,,,,,,,,,,,,,,,,,,,,,,,,,,,,,,,,,,,,0.012325540818892478,None,95,4,1,1203.8894579169769,None,1203.8894579169769,None,space,1203.8894579169769,None,1203.8894579169769,None,1203.8894579169769,None,1203.8894579169769,None,1205.9560607679737,None,0.011817188934401202,None,100,4,1206.3727517353095,None,1206.3727517353095,None,1206.3727517353095,None,1206.3727517353095,None,1208.4394436384468,None,0.338280406173908,,,,,,,045,002,es,2020_Feb_19_1016,Neighborhood,3.2.4,60.013587301123295,
Faces\faces\F1.jpg,0.7,1,79,87,F1,0,3,3,0,15,0,15,0,,,,,,,,,,,,,,,,,,,,,,,,,,,,,,,,,,,,,,,,,,,,,,,,,,,,,,,,,,,,,,,,,,,,,,,,,,,,,,,,,,,,,,,,,,,,,,,0.010922441319962672,None,95,4,1,1211.3894343709867,None,1211.3894343709867,None,space,1211.3894343709867,None,1211.3894343709867,None,1211.3894343709867,None,1211.3894343709867,None,1213.4560544286692,None,0.010736790247392491,None,100,4,1213.8727191331695,None,1213.8727191331695,None,1213.8727191331695,None,1213.8727191331695,None,1215.939375113579,None,0.258257850323389,,,,,,,045,002,es,2020_Feb_19_1016,Neighborhood,3.2.4,60.013587301123295,
Faces\faces\F1.jpg,0.7,1,79,87,F1,0,3,3,0,16,0,16,0,,,,,,,,,,,,,,,,,,,,,,,,,,,,,,,,,,,,,,,,,,,,,,,,,,,,,,,,,,,,,,,,,,,,,,,,,,,,,,,,,,,,,,,,,,,,,,,0.012217168889947061,None,95,4,1,1218.8894530870307,None,1218.8894530870307,None,space,1218.8894530870307,None,1218.8894530870307,None,1218.8894530870307,None,1218.8894530870307,None,1220.9560945775997,None,0.011785492409217113,None,100,4,1221.3727070583031,None,1221.3727070583031,None,1221.3727070583031,None,1221.3727070583031,None,1223.4393708873763,None,0.4031707392168755,,,,,,,045,002,es,2020_Feb_19_1016,Neighborhood,3.2.4,60.013587301123295,
Faces\faces\F1.jpg,0.7,1,79,87,F1,0,3,3,0,17,0,17,0,,,,,,,,,,,,,,,,,,,,,,,,,,,,,,,,,,,,,,,,,,,,,,,,,,,,,,,,,,,,,,,,,,,,,,,,,,,,,,,,,,,,,,,,,,,,,,,0.01188843064755929,None,95,4,0,1226.3893736947825,None,1226.3893736947825,None,space,1226.3893736947825,None,1226.3893736947825,None,1226.3893736947825,None,1226.3893736947825,None,1228.4560299770642,None,0.011232463520173042,None,100,4,1228.8727073601744,None,1228.8727073601744,None,1228.8727073601744,None,1228.8727073601744,None,1230.9393594162525,None,0.21928833151287108,,,,,,,045,002,es,2020_Feb_19_1016,Neighborhood,3.2.4,60.013587301123295,
Faces\faces\F1.jpg,0.7,1,79,87,F1,0,3,3,0,18,0,18,0,,,,,,,,,,,,,,,,,,,,,,,,,,,,,,,,,,,,,,,,,,,,,,,,,,,,,,,,,,,,,,,,,,,,,,,,,,,,,,,,,,,,,,,,,,,,,,,0.011825943213807477,None,95,4,0,1233.8893576955838,None,1233.8893576955838,None,space,1233.8893576955838,None,1233.8893576955838,None,1233.8893576955838,None,1233.8893576955838,None,1235.956015789096,None,0.011679233584800386,None,100,4,1236.3726826066982,None,1236.3726826066982,None,1236.3726826066982,None,1236.3726826066982,None,1238.4393470395148,None,0.7791923483982828,,,,,,,045,002,es,2020_Feb_19_1016,Neighborhood,3.2.4,60.013587301123295,
Faces\faces\F1.jpg,0.7,1,79,87,F1,0,3,3,0,19,0,19,0,,,,,,,,,,,,,,,,,,,,,,,,,,,,,,,,,,,,,,,,,,,,,,,,,,,,,,,,,,,,,,,,,,,,,,,,,,,,,,,,,,,,,,,,,,,,,,,0.011752588398849184,None,95,4,1,1241.3893441113592,None,1241.3893441113592,None,space,1241.3893441113592,None,1241.3893441113592,None,1241.3893441113592,None,1241.3893441113592,None,1243.456004016101,None,0.012039970223668206,None,100,4,1243.8726865310296,None,1243.8726865310296,None,1243.8726865310296,None,1243.8726865310296,None,1245.9393346627762,None,0.4451511260122061,,,,,,,045,002,es,2020_Feb_19_1016,Neighborhood,3.2.4,60.013587301123295,
Faces\faces\F1.jpg,0.7,1,79,87,F1,0,3,3,0,20,0,20,0,,,,,,,,,,,,,,,,,,,,,,,,,,,,,,,,,,,,,,,,,,,,,,,,,,,,,,,,,,,,,,,,,,,,,,,,,,,,,,,,,,,,,,,,,,,,,,,0.012133852311308146,None,95,4,0,1248.8893344514659,None,1248.8893344514659,None,space,1248.8893344514659,None,1248.8893344514659,None,1248.8893344514659,None,1248.8893344514659,None,1250.9726631057888,None,0.01167138492110098,None,100,4,1251.3726611738098,None,1251.3726611738098,None,1251.3726611738098,None,1251.3726611738098,None,1253.4393228897811,None,0.4580917605344439,,,,,,,045,002,es,2020_Feb_19_1016,Neighborhood,3.2.4,60.013587301123295,
Faces\faces\F1.jpg,0.7,1,79,87,F1,0,3,3,0,21,0,21,0,,,,,,,,,,,,,,,,,,,,,,,,,,,,,,,,,,,,,,,,,,,,,,,,,,,,,,,,,,,,,,,,,,,,,,,,,,,,,,,,,,,,,,,,,,,,,,,0.011781568077822158,None,95,4,1,1256.3893244897013,None,1256.3893244897013,None,space,1256.3893244897013,None,1256.3893244897013,None,1256.3893244897013,None,1256.3893244897013,None,1258.4559665840147,None,0.01031175494335912,None,100,4,1258.8726361184622,None,1258.8726361184622,None,1258.8726361184622,None,1258.8726361184622,None,1260.9393077961981,None,0.293046446578046,,,,,,,045,002,es,2020_Feb_19_1016,Neighborhood,3.2.4,60.013587301123295,
Faces\faces\F1.jpg,0.7,1,79,87,F1,0,3,3,0,22,0,22,0,,,,,,,,,,,,,,,,,,,,,,,,,,,,,,,,,,,,,,,,,,,,,,,,,,,,,,,,,,,,,,,,,,,,,,,,,,,,,,,,,,,,,,,,,,,,,,,0.01113224212804198,None,95,4,1,1263.8893121129627,None,1263.8893121129627,None,space,1263.8893121129627,None,1263.8893121129627,None,1263.8893121129627,None,1263.8893121129627,None,1265.9559635652972,None,0.010627814575855155,None,100,4,1266.3726297791568,None,1266.3726297791568,None,1266.3726297791568,None,1266.3726297791568,None,1268.4392933063577,None,0.24906102818749787,,,,,,,045,002,es,2020_Feb_19_1016,Neighborhood,3.2.4,60.013587301123295,
Faces\faces\F1.jpg,0.7,1,79,87,F1,0,3,3,0,23,0,23,0,,,,,,,,,,,,,,,,,,,,,,,,,,,,,,,,,,,,,,,,,,,,,,,,,,,,,,,,,,,,,,,,,,,,,,,,,,,,,,,,,,,,,,,,,,,,,,,0.011169070469804865,None,95,4,0,1271.3893063774017,None,1271.3893063774017,None,space,1271.3893063774017,None,1271.3893063774017,None,1271.3893063774017,None,1271.3893063774017,None,1273.455950584816,None,0.011294347211332934,None,100,4,1273.872620723007,None,1273.872620723007,None,1273.872620723007,None,1273.872620723007,None,1275.9392863633097,None,1.2099771000148394,,,,,,,045,002,es,2020_Feb_19_1016,Neighborhood,3.2.4,60.013587301123295,
Faces\faces\F1.jpg,0.7,1,79,87,F1,0,3,3,0,24,0,24,0,,,,,,,,,,,,,,,,,,,,,,,,,,,,,,,,,,,,,,,,,,,,,,,,,,,,,,,,,,,,,,,,,,,,,,,,,,,,,,,,,,,,,,,,,,,,,,,0.011084848276368575,None,95,4,0,1278.8892843407698,None,1278.8892843407698,None,space,1278.8892843407698,None,1278.8892843407698,None,1278.8892843407698,None,1278.8892843407698,None,1280.9559572259927,None,0.010624493987961614,None,100,4,1281.3726026107074,None,1281.3726026107074,None,1281.3726026107074,None,1281.3726026107074,None,1283.4393059849685,None,0.4909411332137097,,,,,,,045,002,es,2020_Feb_19_1016,Neighborhood,3.2.4,60.013587301123295,
Faces\faces\F1.jpg,0.7,1,79,87,F1,0,3,3,0,25,0,25,0,,,,,,,,,,,,,,,,,,,,,,,,,,,,,,,,,,,,,,,,,,,,,,,,,,,,,,,,,,,,,,,,,,,,,,,,,,,,,,,,,,,,,,,,,,,,,,,0.012183359263872262,None,95,4,0,1286.3892677378285,None,1286.3892677378285,None,space,1286.3892677378285,None,1286.3892677378285,None,1286.3892677378285,None,1286.3892677378285,None,1288.4559255294675,None,0.011961181719016167,None,100,4,1288.872632496002,None,1288.872632496002,None,1288.872632496002,None,1288.872632496002,None,1290.9392933063577,None,0.24991291002424987,,,,,,,045,002,es,2020_Feb_19_1016,Neighborhood,3.2.4,60.013587301123295,
Faces\faces\F1.jpg,0.7,1,79,87,F1,0,3,3,0,26,0,26,0,,,,,,,,,,,,,,,,,,,,,,,,,,,,,,,,,,,,,,,,,,,,,,,,,,,,,,,,,,,,,,,,,,,,,,,,,,,,,,,,,,,,,,,,,,,,,,,0.01103926565428992,None,95,4,1,1293.88925536109,None,1293.88925536109,None,space,1293.88925536109,None,1293.88925536109,None,1293.88925536109,None,1293.88925536109,None,1295.9559321706442,None,0.010707508696214063,None,100,4,1296.372581177819,None,1296.372581177819,None,1296.372581177819,None,1296.372581177819,None,1298.4392815333636,None,0.4768817623025825,,,,,,,045,002,es,2020_Feb_19_1016,Neighborhood,3.2.4,60.013587301123295,
Faces\faces\F1.jpg,0.7,1,79,87,F1,0,3,3,0,27,0,27,0,,,,,,,,,,,,,,,,,,,,,,,,,,,,,,,,,,,,,,,,,,,,,,,,,,,,,,,,,,,,,,,,,,,,,,,,,,,,,,,,,,,,,,,,,,,,,,,0.012089779048437777,None,95,4,1,1301.389249625528,None,1301.389249625528,None,space,1301.389249625528,None,1301.389249625528,None,1301.389249625528,None,1301.389249625528,None,1303.4560079404323,None,0.011838319951493759,None,100,4,1303.8725657823638,None,1303.8725657823638,None,1303.8725657823638,None,1303.8725657823638,None,1305.9392549686568,None,0.2738706528216426,,,,,,,045,002,es,2020_Feb_19_1016,Neighborhood,3.2.4,60.013587301123295,
Faces\faces\F1.jpg,0.7,1,79,87,F1,0,3,3,0,28,0,28,0,,,,,,,,,,,,,,,,,,,,,,,,,,,,,,,,,,,,,,,,,,,,,,,,,,,,,,,,,,,,,,,,,,,,,,,,,,,,,,,,,,,,,,,,,,,,,,,0.012814874787181907,None,95,4,1,1308.8892447955818,None,1308.8892447955818,None,space,1308.8892447955818,None,1308.8892447955818,None,1308.8892447955818,None,1308.8892447955818,None,1310.9559240201093,None,0.010468728209161782,None,100,4,1311.3725621599037,None,1311.3725621599037,None,1311.3725621599037,None,1311.3725621599037,None,1313.4392154234688,None,0.23879075040986208,,,,,,,045,002,es,2020_Feb_19_1016,Neighborhood,3.2.4,60.013587301123295,
Faces\faces\F1.jpg,0.7,1,79,87,F1,0,3,3,0,29,0,29,0,,,,,,,,,,,,,,,,,,,,,,,,,,,,,,,,,,,,,,,,,,,,,,,,,,,,,,,,,,,,,,,,,,,,,,,,,,,,,,,,,,,,,,,,,,,,,,,0.012037857121868,None,95,4,1,1316.3892155140306,None,1316.3892155140306,None,space,1316.3892155140306,None,1316.3892155140306,None,1316.3892155140306,None,1316.3892155140306,None,1318.4560085441758,None,0.0104542383687658,None,100,4,1318.8725395195293,None,1318.8725395195293,None,1318.8725395195293,None,1318.8725395195293,None,1320.9392021411154,None,0.26877143666206393,,,,,,,045,002,es,2020_Feb_19_1016,Neighborhood,3.2.4,60.013587301123295,
Faces\faces\F1.jpg,0.7,1,79,87,F1,0,3,3,0,30,0,30,0,,,,,,,,,,,,,,,,,,,,,,,,,,,,,,,,,,,,,,,,,,,,,,,,,,,,,,,,,,,,,,,,,,,,,,,,,,,,,,,,,,,,,,,,,,,,,,,0.013237193245913659,None,95,4,0,1323.8892013260615,None,1323.8892013260615,None,space,1323.8892013260615,None,1323.8892013260615,None,1323.8892013260615,None,1323.8892013260615,None,1325.955938811821,None,0.011298875286229304,None,100,4,1326.3725331802239,None,1326.3725331802239,None,1326.3725331802239,None,1326.3725331802239,None,1328.4391882550185,None,0.4087749866721424,,,,,,,045,002,es,2020_Feb_19_1016,Neighborhood,3.2.4,60.013587301123295,
Faces\faces\F1.jpg,0.7,1,79,87,F1,0,3,3,0,31,0,31,0,,,,,,,,,,,,,,,,,,,,,,,,,,,,,,,,,,,,,,,,,,,,,,,,,,,,,,,,,,,,,,,,,,,,,,,,,,,,,,,,,,,,,,,,,,,,,,,0.012045403913361952,None,95,4,1,1331.3891904586822,None,1331.3891904586822,None,space,1331.3891904586822,None,1331.3891904586822,None,1331.3891904586822,None,1331.3891904586822,None,1333.4558286286633,None,0.011211030631784524,None,100,4,1333.8725503869086,None,1333.8725503869086,None,1333.8725503869086,None,1333.8725503869086,None,1335.9391577659803,None,0.33169084960627515,,,,,,,045,002,es,2020_Feb_19_1016,Neighborhood,3.2.4,60.013587301123295,
Faces\faces\F1.jpg,0.7,1,79,87,F1,0,3,3,0,32,0,32,0,,,,,,,,,,,,,,,,,,,,,,,,,,,,,,,,,,,,,,,,,,,,,,,,,,,,,,,,,,,,,,,,,,,,,,,,,,,,,,,,,,,,,,,,,,,,,,,0.013170177735446487,None,95,4,1,1338.8891744594835,None,1338.8891744594835,None,space,1338.8891744594835,None,1338.8891744594835,None,1338.8891744594835,None,1338.8891744594835,None,1340.9558331567382,None,0.01117873036491801,None,100,4,1341.3725482738078,None,1341.3725482738078,None,1341.3725482738078,None,1341.3725482738078,None,1343.439163199671,None,0.34867656443475425,,,,,,,045,002,es,2020_Feb_19_1016,Neighborhood,3.2.4,60.013587301123295,
Faces\faces\F1.jpg,0.7,1,79,87,F1,0,3,3,0,33,0,33,0,,,,,,,,,,,,,,,,,,,,,,,,,,,,,,,,,,,,,,,,,,,,,,,,,,,,,,,,,,,,,,,,,,,,,,,,,,,,,,,,,,,,,,,,,,,,,,,0.011927372092031874,None,95,4,1,1346.3891614790023,None,1346.3891614790023,None,space,1346.3891614790023,None,1346.3891614790023,None,1346.3891614790023,None,1346.3891614790023,None,1348.455828326792,None,0.010416806282592006,None,100,4,1348.8725540093687,None,1348.8725540093687,None,1348.8725540093687,None,1348.8725540093687,None,1350.9391490117027,None,0.2666332796597999,,,,,,,045,002,es,2020_Feb_19_1016,Neighborhood,3.2.4,60.013587301123295,
Faces\faces\F1.jpg,0.7,1,79,87,F1,0,3,3,0,34,0,34,0,,,,,,,,,,,,,,,,,,,,,,,,,,,,,,,,,,,,,,,,,,,,,,,,,,,,,,,,,,,,,,,,,,,,,,,,,,,,,,,,,,,,,,,,,,,,,,,0.012171586269687396,None,95,4,1,1353.8891494041359,None,1353.8891494041359,None,space,1353.8891494041359,None,1353.8891494041359,None,1353.8891494041359,None,1353.8891494041359,None,1355.955805082674,None,0.01067400094052573,None,100,4,1356.3724709946614,None,1356.3724709946614,None,1356.3724709946614,None,1356.3724709946614,None,1358.4391161076915,None,0.3005878045059944,,,,,,,045,002,es,2020_Feb_19_1016,Neighborhood,3.2.4,60.013587301123295,
Faces\faces\F1.jpg,0.7,1,79,87,F1,0,3,3,0,35,0,35,0,,,,,,,,,,,,,,,,,,,,,,,,,,,,,,,,,,,,,,,,,,,,,,,,,,,,,,,,,,,,,,,,,,,,,,,,,,,,,,,,,,,,,,,,,,,,,,,0.011793341073826014,None,95,4,1,1361.3891388386278,None,1361.3891388386278,None,space,1361.3891388386278,None,1361.3891388386278,None,1361.3891388386278,None,1361.3891388386278,None,1363.4557939134224,None,0.010475671256244823,None,100,4,1363.8724555992062,None,1363.8724555992062,None,1363.8724555992062,None,1363.8724555992062,None,1365.9391227488672,None,0.35355964048358146,,,,,,,045,002,es,2020_Feb_19_1016,Neighborhood,3.2.4,60.013587301123295,
Faces\faces\F1.jpg,0.7,1,79,87,F1,0,3,3,0,36,0,36,0,,,,,,,,,,,,,,,,,,,,,,,,,,,,,,,,,,,,,,,,,,,,,,,,,,,,,,,,,,,,,,,,,,,,,,,,,,,,,,,,,,,,,,,,,,,,,,,0.013113727734889835,None,95,4,1,1368.8891632902319,None,1368.8891632902319,None,space,1368.8891632902319,None,1368.8891632902319,None,1368.8891632902319,None,1368.8891632902319,None,1370.9557773104802,None,0.010666454149941273,None,100,4,1371.37245076926,None,1371.37245076926,None,1371.37245076926,None,1371.37245076926,None,1373.4391088627713,None,0.5304793782406705,,,,,,,045,002,es,2020_Feb_19_1016,Neighborhood,3.2.4,60.013587301123295,
Faces\faces\F1.jpg,0.7,1,79,87,F1,0,3,3,0,37,0,37,0,,,,,,,,,,,,,,,,,,,,,,,,,,,,,,,,,,,,,,,,,,,,,,,,,,,,,,,,,,,,,,,,,,,,,,,,,,,,,,,,,,,,,,,,,,,,,,,0.011727834922567126,None,95,4,1,1376.389148498521,None,1376.389148498521,None,space,1376.389148498521,None,1376.389148498521,None,1376.389148498521,None,1376.389148498521,None,1378.455770065561,None,0.010338621520531888,None,100,4,1378.8724196764783,None,1378.8724196764783,None,1378.8724196764783,None,1378.8724196764783,None,1380.9891673353127,None,0.3835016871607877,,,,,,,045,002,es,2020_Feb_19_1016,Neighborhood,3.2.4,60.013587301123295,
Faces\faces\F1.jpg,0.7,1,79,87,F1,0,3,3,0,38,0,38,0,,,,,,,,,,,,,,,,,,,,,,,,,,,,,,,,,,,,,,,,,,,,,,,,,,,,,,,,,,,,,,,,,,,,,,,,,,,,,,,,,,,,,,,,,,,,,,,0.012067742416547844,None,95,4,1,1383.8892079672382,None,1383.8892079672382,None,space,1383.8892079672382,None,1383.8892079672382,None,1383.8892079672382,None,1383.8892079672382,None,1385.955744406469,None,0.011518637858898728,None,100,4,1386.3724000548204,None,1386.3724000548204,None,1386.3724000548204,None,1386.3724000548204,None,1388.4390650913797,None,0.31236683686165634,,,,,,,045,002,es,2020_Feb_19_1016,Neighborhood,3.2.4,60.013587301123295,
Faces\faces\F1.jpg,0.7,1,79,87,F1,0,3,3,0,39,0,39,0,,,,,,,,,,,,,,,,,,,,,,,,,,,,,,,,,,,,,,,,,,,,,,,,,,,,,,,,,,,,,,,,,,,,,,,,,,,,,,,,,,,,,,,,,,,,,,,0.01167108304980502,None,95,4,1,1391.3890826904976,None,1391.3890826904976,None,space,1391.3890826904976,None,1391.3890826904976,None,1391.3890826904976,None,1391.3890826904976,None,1393.4557477270578,None,0.0114045303698731,None,100,4,1393.8724242045532,None,1393.8724242045532,None,1393.8724242045532,None,1393.8724242045532,None,1395.9390699213259,None,0.2554154267281774,,,,,,,045,002,es,2020_Feb_19_1016,Neighborhood,3.2.4,60.013587301123295,
,,,,,,,,,,,,,,,,,,,,,,,,,,,,,,,,,,,,,,,,,,,,,,,,,,,,,,,,,,,,,,,,,,,,,,,,,,,,,,,,,,,,,,,,,,,,,,,,,,,,,,,,,,,,,,,,,,,,,,,,,,,,,,,,,,,,,,,,,,,,,,,0.007421031881676754,None,87,4,1398.8723940173863,None,,,,,,,,
