testCS,correctAns,CS,US,blocks.thisRepN,blocks.thisTrialN,blocks.thisN,blocks.thisIndex,trials.thisRepN,trials.thisTrialN,trials.thisN,trials.thisIndex,p_port_4_start,p_port_4_end,key_resp_4.keys,key_resp_4.rt,key_resp_4.started,key_resp_4.stopped,text_2.started,text_2.stopped,p_port_4.started,p_port_4.stopped,Ready.started,Ready.stopped,vend.started,vend.stopped,p_port.started,p_port.stopped,p_port_start,p_port_end,p_port_3_start,p_port_3_end,vend_CS.started,vend_CS.stopped,p_port_3.started,p_port_3.stopped,Outcome.started,Outcome.stopped,reward.started,reward.stopped,p_port_2.started,p_port_2.stopped,vend_testy.started,vend_testy.stopped,choice_text.started,choice_text.stopped,key_resp_2.keys,key_resp_2.corr,key_resp_2.rt,key_resp_2.started,key_resp_2.stopped,option_text.started,option_text.stopped,p_port_2_start,p_port_2_end,image.started,image.stopped,p_port_5.started,p_port_5.stopped,p_port_5_start,p_port_5_end,feedback_text.started,feedback_text.stopped,text.started,text.stopped,finish_text.started,finish_text.stopped,Thankyou_text.started,Thankyou_text.stopped,version,participant,CB,participant initials,phase,date,expName,psychopyVersion,frameRate,
,,,,,,,,,,,,159,4,q,4.772485967496323,181.41526734056424,None,,,,,,,,,,,,,,,,,,,,,,,,,,,,,,,,,,,,,,,,,,,,,,,,,,,,J,083,yes,cm,Vpav,2020_Feb_17_1647,Pavlovian,3.2.4,59.9938062331397,
CBgreen.png,n,blue.png,3,0,0,0,1,0,0,0,2,,,,,,,181.41526734056424,None,0.014995474943134468,1.0133128422839945,186.21519525361145,None,203.2319488291305,None,0.014473538838501554,1.5120742628478183,111,4,117,4,204.94858038812163,207.94861148090422,2.012056150548233,3.512051622472427,206.94851156138247,None,207.93184311367258,None,,,,,,,,,,,,,,,,,,,,,,,,,,,,,,J,083,yes,cm,Vpav,2020_Feb_17_1647,Pavlovian,3.2.4,59.9938062331397,
CBgreen.png,n,green.png,2,0,0,0,1,0,1,1,1,,,,,,,,,,,,,208.84856728689192,None,0.008190382010070607,1.4994886294025491,111,4,117,4,210.46519872513454,213.46516612299638,1.9995266652331338,3.4995269671035203,212.46516400989458,None,213.44857857689203,None,,,,,,,,,,,,,,,,,,,,,,,,,,,,,,J,083,yes,cm,Vpav,2020_Feb_17_1647,Pavlovian,3.2.4,59.9938062331397,
CBgreen.png,n,yellow.png,4,0,0,0,1,0,2,2,3,,,,,,,,,,,,,214.34850238448416,None,0.00519430573876889,1.493526362155535,111,4,117,4,215.8985291605004,218.89849263402903,2.0101848480990157,3.510185149971221,217.89848961531243,None,218.89849263402903,None,,,,,,,,,,,,,,,,,,,,,,,,,,,,,,J,083,yes,cm,Vpav,2020_Feb_17_1647,Pavlovian,3.2.4,59.9938062331397,
CBgreen.png,n,red.png,1,0,0,0,1,0,3,3,0,,,,,,,,,,,,,219.88183746867253,None,0.015566616135402,1.5142564931102243,111,4,117,4,221.46518725401256,224.46514016203218,2.014292717711214,3.514252266906624,223.46514438823579,None,224.4484774498851,None,,,,,,,,,,,,,,,,,,,,,,,,,,,,,,J,083,yes,cm,Vpav,2020_Feb_17_1647,Pavlovian,3.2.4,59.9938062331397,
CBgreen.png,n,yellow.png,4,0,0,0,1,1,0,4,3,,,,,,,,,,,,,225.33181944693388,None,0.016396763214288512,1.5159376164137939,111,4,117,4,226.89851135007302,229.89846546557965,1.9992733949075046,3.4992682630891068,228.89846848429625,None,229.86513400385047,None,,,,,,,,,,,,,,,,,,,,,,,,,,,,,,J,083,yes,cm,Vpav,2020_Feb_17_1647,Pavlovian,3.2.4,59.9938062331397,
CBgreen.png,n,blue.png,3,0,0,0,1,1,1,5,2,,,,,,,,,,,,,230.88183112936895,None,0.0030199241355148843,1.5057992565525637,111,4,117,4,232.51517659794263,235.51516120248743,2.005800162167361,None,234.51516935302243,None,235.49845622830617,None,,,,,,,,,,,,,,,,,,,,,,,,,,,,,,J,083,yes,cm,Vpav,2020_Feb_17_1647,Pavlovian,3.2.4,59.9938062331397,
CBgreen.png,n,red.png,1,0,0,0,1,1,2,6,0,,,,,,,,,,,,,236.34846434865358,None,0.016456231929623755,1.5160647043812787,111,4,117,4,237.9318307369358,240.93177458880564,1.999327128060031,3.499325014958231,239.93177821126483,None,240.89844312707646,None,,,,,,,,,,,,,,,,,,,,,,,,,,,,,,J,083,yes,cm,Vpav,2020_Feb_17_1647,Pavlovian,3.2.4,59.9938062331397,
CBgreen.png,n,green.png,2,0,0,0,1,1,3,7,1,,,,,,,,,,,,,241.8484507644298,None,0.01483487922087079,1.512988933991437,111,4,117,4,243.4649502847551,246.465143482621,2.0129847077878367,3.5130327053830115,245.46516129304837,None,246.44849103410888,None,,,,,,,,,,,,,,,,,,,,,,,,,,,,,,J,083,yes,cm,Vpav,2020_Feb_17_1647,Pavlovian,3.2.4,59.9938062331397,
CBgreen.png,n,yellow.png,4,0,0,0,1,2,0,8,3,,,,,,,,,,,,,247.3484257090804,None,0.003128296064460301,1.4894266430746939,111,4,117,4,248.89826140033438,251.89843195782487,2.0060956945289945,3.506097203886384,250.89842561851947,None,251.89843195782487,None,,,,,,,,,,,,,,,,,,,,,,,,,,,,,,J,083,yes,cm,Vpav,2020_Feb_17_1647,Pavlovian,3.2.4,59.9938062331397,
CBgreen.png,n,green.png,2,0,0,0,1,2,1,9,1,,,,,,,,,,,,,252.86513249449308,None,0.0029160802841943223,1.5055960969220905,111,4,117,4,254.48179713861828,257.4817603102765,2.0056344346248807,3.505592474462901,256.4817578953025,None,257.4650815989298,None,,,,,,,,,,,,,,,,,,,,,,,,,,,,,,J,083,yes,cm,Vpav,2020_Feb_17_1647,Pavlovian,3.2.4,59.9938062331397,
CBgreen.png,n,red.png,1,0,0,0,1,2,2,10,0,,,,,,,,,,,,,258.3484223884934,None,0.0007281144589796895,1.5012265045770619,111,4,117,4,259.91511670660475,262.91507142585397,2.001224693347467,3.501222580245667,261.9150759539298,None,262.8984032800163,None,,,,,,,,,,,,,,,,,,,,,,,,,,,,,,J,083,yes,cm,Vpav,2020_Feb_17_1647,Pavlovian,3.2.4,59.9938062331397,
CBgreen.png,n,blue.png,3,0,0,0,1,2,3,11,2,,,,,,,,,,,,,263.8484082005252,None,0.014245021988244844,1.511573155885344,111,4,117,4,265.54844979843983,268.5483963671559,2.0115683259373327,None,267.54841115886666,None,268.5318139528699,None,,,,,,,,,,,,,,,,,,,,,,,,,,,,,,J,083,yes,cm,Vpav,2020_Feb_17_1647,Pavlovian,3.2.4,59.9938062331397,
CBgreen.png,n,,,0,0,0,1,,,,,,,,,,,,,,,,,269.3984005631719,None,,,,,,,,,,,,,,,0.0162394880753709,1.0155977089161752,270.9984085325832,None,271.9983870996948,None,n,1,5.440685236604622,271.9983870996948,None,270.9984085325832,None,159,4,270.9984085325832,None,0.007875529863667907,None,119,4,277.69837768129946,None,,,,,,,J,083,yes,cm,Vpav,2020_Feb_17_1647,Pavlovian,3.2.4,59.9938062331397,
CBblue.png,s,blue.png,3,0,1,1,2,0,0,0,2,,,,,,,,,,,,,279.9317145163441,None,0.004457437004020903,1.4920574546340504,111,4,117,4,281.56505606058636,284.56504096700337,2.0086872627707635,3.5086733766729594,283.5650361370572,None,284.56504096700337,None,,,,,,,,,,,,,,,,,,,,,,,,,,,,,,J,083,yes,cm,Vpav,2020_Feb_17_1647,Pavlovian,3.2.4,59.9938062331397,
CBblue.png,s,green.png,2,0,1,1,2,0,1,1,1,,,,,,,,,,,,,285.4484536020227,None,8.995776079245843e-05,1.4999429462586704,111,4,117,4,287.115068346764,290.11502759408904,1.999934795723675,None,289.1150559700254,None,290.09833439290196,None,,,,,,,,,,,,,,,,,,,,,,,,,,,,,,J,083,yes,cm,Vpav,2020_Feb_17_1647,Pavlovian,3.2.4,59.9938062331397,
CBblue.png,s,yellow.png,4,0,1,1,2,0,2,2,3,,,,,,,,,,,,,290.9317027433499,None,0.010248241145745851,1.5035681230783666,111,4,117,4,292.5150537361751,295.51501449285934,2.003608573881138,3.5035693305653695,294.5150126816279,None,295.4984073250962,None,,,,,,,,,,,,,,,,,,,,,,,,,,,,,,J,083,yes,cm,Vpav,2020_Feb_17_1647,Pavlovian,3.2.4,59.9938062331397,
CBblue.png,s,red.png,1,0,1,1,2,0,3,3,0,,,,,,,,,,,,,296.46506378850063,None,0.009039245131134521,1.5012277120640647,111,4,117,4,298.04843561047164,301.0484057251779,2.00118967623348,3.5011842425446957,300.0484036120761,None,301.0316747900324,None,,,,,,,,,,,,,,,,,,,,,,,,,,,,,,J,083,yes,cm,Vpav,2020_Feb_17_1647,Pavlovian,3.2.4,59.9938062331397,
CBblue.png,s,green.png,2,0,1,1,2,1,0,4,1,,,,,,,,,,,,,301.9316659150063,None,0.005145402528796694,1.4934173864839977,111,4,117,4,303.5816852649805,306.5816565871719,2.010034214137704,None,305.5816405879741,None,306.5816565871719,None,,,,,,,,,,,,,,,,,,,,,,,,,,,,,,J,083,yes,cm,Vpav,2020_Feb_17_1647,Pavlovian,3.2.4,59.9938062331397,
CBblue.png,s,red.png,1,0,1,1,2,1,1,5,0,,,,,,,,,,,,,307.4316662168785,None,0.008062992166742333,1.499281545440681,111,4,117,4,309.031680223723,312.03165396088843,1.9992857716424624,3.499264338755893,311.0316645263956,None,312.01497796638614,None,,,,,,,,,,,,,,,,,,,,,,,,,,,,,,J,083,yes,cm,Vpav,2020_Feb_17_1647,Pavlovian,3.2.4,59.9938062331397,
CBblue.png,s,blue.png,3,0,1,1,2,1,2,6,2,,,,,,,,,,,,,312.9316420671439,None,0.01344536394935858,1.5100076494309178,111,4,117,4,314.59835612766256,317.5983069225804,2.009951199430361,None,316.5983087338118,None,317.5816378711279,None,,,,,,,,,,,,,,,,,,,,,,,,,,,,,,J,083,yes,cm,Vpav,2020_Feb_17_1647,Pavlovian,3.2.4,59.9938062331397,
CBblue.png,s,yellow.png,4,0,1,1,2,1,3,7,3,,,,,,,,,,,,,318.48167910679695,None,0.005519421518329182,1.4941826311514887,111,4,117,4,319.96503360133465,322.9650031122965,2.0108851903587492,3.510904812017543,321.96500401791127,None,322.9650031122965,None,,,,,,,,,,,,,,,,,,,,,,,,,,,,,,J,083,yes,cm,Vpav,2020_Feb_17_1647,Pavlovian,3.2.4,59.9938062331397,
CBblue.png,s,red.png,1,0,1,1,2,2,0,8,0,,,,,,,,,,,,,323.9650076403723,None,0.0016877644811756909,1.5031141080980888,111,4,117,4,325.5483396152831,328.54828527838254,2.003110183764875,3.503109580022283,327.54829373078974,None,328.53161683067265,None,,,,,,,,,,,,,,,,,,,,,,,,,,,,,,J,083,yes,cm,Vpav,2020_Feb_17_1647,Pavlovian,3.2.4,59.9938062331397,
CBblue.png,s,yellow.png,4,0,1,1,2,2,1,9,3,,,,,,,,,,,,,329.43163059602193,None,0.0024994973864522763,1.5048495682967769,111,4,117,4,331.0316735825472,334.03162166062066,2.0048136455679924,3.5048658693667676,333.03160898200986,None,334.01494868483496,None,,,,,,,,,,,,,,,,,,,,,,,,,,,,,,J,083,yes,cm,Vpav,2020_Feb_17_1647,Pavlovian,3.2.4,59.9938062331397,
CBblue.png,s,blue.png,3,0,1,1,2,2,2,10,2,,,,,,,,,,,,,334.98165918326777,None,0.009272290057197097,1.5016720671555959,111,4,117,4,336.5316956191782,339.5316657338826,2.0016823307923914,3.5016270882770186,338.53161924564665,None,339.51497283456956,None,,,,,,,,,,,,,,,,,,,,,,,,,,,,,,J,083,yes,cm,Vpav,2020_Feb_17_1647,Pavlovian,3.2.4,59.9938062331397,
CBblue.png,s,green.png,2,0,1,1,2,2,3,11,1,,,,,,,,,,,,,340.4482739883824,None,0.010543169762968319,1.504176696354989,111,4,117,4,342.01496921210855,345.0149076302896,2.0041863562473736,3.5041486222889944,344.01496468403457,None,344.9982334470187,None,,,,,,,,,,,,,,,,,,,,,,,,,,,,,,J,083,yes,cm,Vpav,2020_Feb_17_1647,Pavlovian,3.2.4,59.9938062331397,
CBblue.png,s,,,0,1,1,2,,,,,,,,,,,,,,,,,345.9816302035888,None,,,,,,,,,,,,,,,0.01642302604705037,1.0160849297826644,347.53161018949686,None,348.5315784929717,None,s,1,6.78694501649079,348.5315784929717,None,347.53161018949686,None,159,4,347.53161018949686,None,0.01223576418851735,None,119,4,355.5816218719301,None,,,,,,,J,083,yes,cm,Vpav,2020_Feb_17_1647,Pavlovian,3.2.4,59.9938062331397,
CByellow.png,k,red.png,1,0,2,2,3,0,0,0,0,,,,,,,,,,,,,357.83155772420105,None,0.00902898149615794,1.5011727714227163,111,4,117,4,359.41490690579667,362.4148845672935,2.0011688470913214,3.501207486664498,361.4148900009841,None,362.3982478161088,None,,,,,,,,,,,,,,,,,,,,,,,,,,,,,,J,083,yes,cm,Vpav,2020_Feb_17_1647,Pavlovian,3.2.4,59.9938062331397,
CByellow.png,k,yellow.png,4,0,2,2,3,0,1,1,3,,,,,,,,,,,,,363.31488957836336,None,0.004691689417086309,1.4925353174785414,111,4,117,4,364.83158942072623,367.83154534746245,2.0092019539588364,3.5092375748154154,366.83154444184765,None,367.83154534746245,None,,,,,,,,,,,,,,,,,,,,,,,,,,,,,,J,083,yes,cm,Vpav,2020_Feb_17_1647,Pavlovian,3.2.4,59.9938062331397,
CByellow.png,k,blue.png,3,0,2,2,3,0,2,2,2,,,,,,,,,,,,,368.84821530453155,None,0.00915788069505652,1.5014293623353296,111,4,117,4,370.3982324206536,373.3982384580868,2.001408533191352,3.5014067219617573,372.3982402693182,None,373.3815346913925,None,,,,,,,,,,,,,,,,,,,,,,,,,,,,,,J,083,yes,cm,Vpav,2020_Feb_17_1647,Pavlovian,3.2.4,59.9938062331397,
CByellow.png,k,green.png,2,0,2,2,3,0,3,3,1,,,,,,,,,,,,,374.33157885521723,None,0.011241097054153215,1.5055876445167087,111,4,117,4,375.8982677396398,378.8982297038092,2.005589153875917,3.5055927763351065,377.8982185345576,None,378.88152110716874,None,,,,,,,,,,,,,,,,,,,,,,,,,,,,,,J,083,yes,cm,Vpav,2020_Feb_17_1647,Pavlovian,3.2.4,59.9938062331397,
CByellow.png,k,green.png,2,0,2,2,3,1,0,4,1,,,,,,,,,,,,,379.7982341111365,None,0.005525760823729797,1.4942279119004525,111,4,117,4,381.46487602432535,384.46484945961856,2.0108562106797763,None,383.46484976149077,None,384.46484945961856,None,,,,,,,,,,,,,,,,,,,,,,,,,,,,,,J,083,yes,cm,Vpav,2020_Feb_17_1647,Pavlovian,3.2.4,59.9938062331397,
CByellow.png,k,blue.png,3,0,2,2,3,1,1,5,2,,,,,,,,,,,,,385.3148581837104,None,0.0061424846353475004,1.4954281536411145,111,4,117,4,386.864872582988,389.86484782951266,2.0120618861092225,3.512051018728016,388.86483998084987,None,389.86484782951266,None,,,,,,,,,,,,,,,,,,,,,,,,,,,,,,J,083,yes,cm,Vpav,2020_Feb_17_1647,Pavlovian,3.2.4,59.9938062331397,
CByellow.png,k,red.png,1,0,2,2,3,1,2,6,0,,,,,,,,,,,,,390.8315073116337,None,0.0031805198632355314,1.4895685227584181,111,4,117,4,392.3313385653728,395.3314976517395,2.0061808223381377,3.5061693512143393,394.3315039910449,None,395.3314976517395,None,,,,,,,,,,,,,,,,,,,,,,,,,,,,,,J,083,yes,cm,Vpav,2020_Feb_17_1647,Pavlovian,3.2.4,59.9938062331397,
CByellow.png,k,yellow.png,4,0,2,2,3,1,3,7,3,,,,,,,,,,,,,396.3148690510898,None,0.009337494337160024,1.5018115318634955,111,4,117,4,397.8148458069718,400.8148328264906,2.001807909404306,3.501848662079283,399.8148578818382,None,400.7981692087269,None,,,,,,,,,,,,,,,,,,,,,,,,,,,,,,J,083,yes,cm,Vpav,2020_Feb_17_1647,Pavlovian,3.2.4,59.9938062331397,
CByellow.png,k,green.png,2,0,2,2,3,2,0,8,1,,,,,,,,,,,,,401.8315003685857,None,0.0002360636462981347,1.5002991548244609,111,4,117,4,403.41490569830967,406.4148474370795,2.0002704770158743,3.500331455092237,405.4148450221055,None,406.39815333027764,None,,,,,,,,,,,,,,,,,,,,,,,,,,,,,,J,083,yes,cm,Vpav,2020_Feb_17_1647,Pavlovian,3.2.4,59.9938062331397,
CByellow.png,k,yellow.png,4,0,2,2,3,2,1,9,3,,,,,,,,,,,,,407.3148527500198,None,0.004479171762795886,1.4921199420678022,111,4,117,4,408.8148385620516,411.814847316331,2.008843028548654,3.508849065981849,410.8148497313032,None,411.814847316331,None,,,,,,,,,,,,,,,,,,,,,,,,,,,,,,J,083,yes,cm,Vpav,2020_Feb_17_1647,Pavlovian,3.2.4,59.9938062331397,
CByellow.png,k,red.png,1,0,2,2,3,2,2,10,0,,,,,,,,,,,,,412.8314852750027,None,0.011657378079689806,1.5064365076395916,111,4,117,4,414.3314946330229,417.3314922180507,2.0064621667297615,3.5064654873185646,416.3314505597609,None,417.314853051892,None,,,,,,,,,,,,,,,,,,,,,,,,,,,,,,J,083,yes,cm,Vpav,2020_Feb_17_1647,Pavlovian,3.2.4,59.9938062331397,
CByellow.png,k,blue.png,3,0,2,2,3,2,3,11,2,,,,,,,,,,,,,418.2981604544493,None,0.014570137771443115,1.5122101050965284,111,4,117,4,419.96486394945896,422.9648141406342,2.0121928984117403,3.5121904834377347,421.9648473465186,None,422.9481121851695,None,,,,,,,,,,,,,,,,,,,,,,,,,,,,,,J,083,yes,cm,Vpav,2020_Feb_17_1647,Pavlovian,3.2.4,59.9938062331397,
CByellow.png,k,,,0,2,2,3,,,,,,,,,,,,,,,,,423.8647611923443,None,,,,,,,,,,,,,,,0.016269071496935794,1.0158026797762432,425.4481462966687,None,426.44810071404754,None,k,1,2.949981072646551,426.44810071404754,None,425.4481462966687,None,159,4,425.4481462966687,None,0.011738581555619021,None,119,4,429.64810035180017,None,,,,,,,J,083,yes,cm,Vpav,2020_Feb_17_1647,Pavlovian,3.2.4,59.9938062331397,
CBred.png,b,blue.png,3,0,3,3,0,0,0,0,2,,,,,,,,,,,,,431.8647735690829,None,0.00401942121789034,1.4912206663775578,111,4,117,4,433.44811701511753,436.44808773356635,2.0078435314662784,3.507839305262678,435.44807837554436,None,436.44808773356635,None,,,,,,,,,,,,,,,,,,,,,,,,,,,,,,J,083,yes,cm,Vpav,2020_Feb_17_1647,Pavlovian,3.2.4,59.9938062331397,
CBred.png,b,green.png,2,0,3,3,0,0,1,1,1,,,,,,,,,,,,,437.381463147809,None,0.0033495679945190204,1.489839301641041,111,4,117,4,438.964780331009,441.96474169143585,2.00650141004553,3.506498089458546,440.96474652138204,None,441.96474169143585,None,,,,,,,,,,,,,,,,,,,,,,,,,,,,,,J,083,yes,cm,Vpav,2020_Feb_17_1647,Pavlovian,3.2.4,59.9938062331397,
CBred.png,b,yellow.png,4,0,3,3,0,0,2,2,3,,,,,,,,,,,,,442.8814139427268,None,0.003248139115385129,1.4895905593893985,111,4,117,4,444.43123604975517,447.4314790564458,2.006334475016047,3.5062737988118897,446.4314971687454,None,447.4314790564458,None,,,,,,,,,,,,,,,,,,,,,,,,,,,,,,J,083,yes,cm,Vpav,2020_Feb_17_1647,Pavlovian,3.2.4,59.9938062331397,
CBred.png,b,red.png,1,0,3,3,0,0,3,3,0,,,,,,,,,,,,,448.3980775604905,None,0.002075367698125774,1.5038986725521681,111,4,117,4,449.931487508853,452.9313878912035,2.0038968613225734,3.503903200627974,451.93139423050707,None,452.9147457063282,None,,,,,,,,,,,,,,,,,,,,,,,,,,,,,,J,083,yes,cm,Vpav,2020_Feb_17_1647,Pavlovian,3.2.4,59.9938062331397,
CBred.png,b,blue.png,3,0,3,3,0,1,0,4,2,,,,,,,,,,,,,453.8647436837873,None,0.008098613025140367,1.4993675788664405,111,4,117,4,455.5147521663821,458.5147086968627,1.9993518815408606,3.4993760312736413,457.5147074893757,None,458.4980499090452,None,,,,,,,,,,,,,,,,,,,,,,,,,,,,,,J,083,yes,cm,Vpav,2020_Feb_17_1647,Pavlovian,3.2.4,59.9938062331397,
CBred.png,b,green.png,2,0,3,3,0,1,1,5,1,,,,,,,,,,,,,459.3814302437968,None,0.00794767719162337,1.4990056347396603,111,4,117,4,460.9313948342515,463.9313601190097,1.999039746237031,3.4990234451670403,462.9313712882613,None,463.914705859268,None,,,,,,,,,,,,,,,,,,,,,,,,,,,,,,J,083,yes,cm,Vpav,2020_Feb_17_1647,Pavlovian,3.2.4,59.9938062331397,
CBred.png,b,yellow.png,4,0,3,3,0,1,2,6,3,,,,,,,,,,,,,464.8814284325672,None,0.00907879031910852,1.5013312540449988,111,4,117,4,466.414704651781,469.4146892563276,2.001330046557996,3.5013246128673927,468.4146968031182,None,469.3980214123603,None,,,,,,,,,,,,,,,,,,,,,,,,,,,,,,J,083,yes,cm,Vpav,2020_Feb_17_1647,Pavlovian,3.2.4,59.9938062331397,
CBred.png,b,red.png,1,0,3,3,0,1,3,7,0,,,,,,,,,,,,,470.3980639762649,None,0.0009859128604148282,1.501768967958924,111,4,117,4,471.93141868211205,474.9313450254267,2.001774401647708,3.5017692698293104,473.9313347617899,None,474.9147269902842,None,,,,,,,,,,,,,,,,,,,,,,,,,,,,,,J,083,yes,cm,Vpav,2020_Feb_17_1647,Pavlovian,3.2.4,59.9938062331397,
CBred.png,b,yellow.png,4,0,3,3,0,2,0,8,3,,,,,,,,,,,,,475.86470625170114,None,0.0012597104614542332,1.5022510570070153,111,4,117,4,477.4147230659528,480.4147281977712,2.0022788292008045,3.5022413971146307,479.4146898600702,None,480.3980425433765,None,,,,,,,,,,,,,,,,,,,,,,,,,,,,,,J,083,yes,cm,Vpav,2020_Feb_17_1647,Pavlovian,3.2.4,59.9938062331397,
CBred.png,b,red.png,1,0,3,3,0,2,1,9,0,,,,,,,,,,,,,481.3980494864263,None,0.00609448704199167,1.495396155245544,111,4,117,4,482.88136473764644,485.88132911678986,2.0120084548252635,3.5120039267512766,484.88132579620105,None,485.88132911678986,None,,,,,,,,,,,,,,,,,,,,,,,,,,,,,,J,083,yes,cm,Vpav,2020_Feb_17_1647,Pavlovian,3.2.4,59.9938062331397,
CBred.png,b,green.png,2,0,3,3,0,2,2,10,1,,,,,,,,,,,,,486.8647361369967,None,0.007250957387441304,1.4976614002152928,111,4,117,4,488.5146866602299,491.51468243402815,2.0143331685139856,3.5143521864283684,490.51466703857295,None,491.51468243402815,None,,,,,,,,,,,,,,,,,,,,,,,,,,,,,,J,083,yes,cm,Vpav,2020_Feb_17_1647,Pavlovian,3.2.4,59.9938062331397,
CBred.png,b,blue.png,3,0,3,3,0,2,3,11,2,,,,,,,,,,,,,492.38131915502527,None,0.008141780672303867,1.4993920304714266,111,4,117,4,493.948016189981,496.9479781541504,1.999388408012237,3.499398973519419,495.947959136236,None,496.9313112157997,None,,,,,,,,,,,,,,,,,,,,,,,,,,,,,,J,083,yes,cm,Vpav,2020_Feb_17_1647,Pavlovian,3.2.4,59.9938062331397,
CBred.png,b,,,0,3,3,0,,,,,,,,,,,,,,,,,497.9479802672522,None,,,,,,,,,,,,,,,0.01639585759585316,1.016015499297282,499.5479942740985,None,500.54796680377694,None,b,1,3.02761763485978,500.54796680377694,None,499.5479942740985,None,159,4,499.5479942740985,None,0.012989235861823545,None,119,4,503.8312978126978,None,,,,,,,J,083,yes,cm,Vpav,2020_Feb_17_1647,Pavlovian,3.2.4,59.9938062331397,
CBblue.png,s,green.png,2,1,0,4,2,0,0,0,1,,,,,,,,,,,,,506.0479948778411,None,0.01416321476790472,1.5114508978604135,111,4,117,4,507.6980084922543,510.69794268422993,2.011454520321422,3.5114502941178216,509.69794540107614,None,510.6813171022968,None,,,,,,,,,,,,,,,,,,,,,,,,,,,,,,J,083,yes,cm,Vpav,2020_Feb_17_1647,Pavlovian,3.2.4,59.9938062331397,
CBblue.png,s,yellow.png,4,1,0,4,2,0,1,1,3,,,,,,,,,,,,,511.56462891218143,None,0.012132825950175175,1.5073732154123718,111,4,117,4,513.0813200002649,516.0813142647039,2.007374121027169,3.5073683854661795,515.0813018879653,None,516.064613214854,None,,,,,,,,,,,,,,,,,,,,,,,,,,,,,,J,083,yes,cm,Vpav,2020_Feb_17_1647,Pavlovian,3.2.4,59.9938062331397,
CBblue.png,s,red.png,1,1,0,4,2,0,2,2,0,,,,,,,,,,,,,517.0812973598913,None,0.012122864185585058,1.5073765360011748,111,4,117,4,518.6146994595892,521.6146357646685,2.0073723097975744,3.5073913277119573,520.6146369721555,None,521.5979256586688,None,,,,,,,,,,,,,,,,,,,,,,,,,,,,,,J,083,yes,cm,Vpav,2020_Feb_17_1647,Pavlovian,3.2.4,59.9938062331397,
CBblue.png,s,blue.png,3,1,0,4,2,0,3,3,2,,,,,,,,,,,,,522.5645938950674,None,0.007235260060042492,1.4975361234737647,111,4,117,4,524.1479587739905,527.1479150025989,2.014209401129847,3.51420487305586,526.1479192288025,None,527.1479150025989,None,,,,,,,,,,,,,,,,,,,,,,,,,,,,,,J,083,yes,cm,Vpav,2020_Feb_17_1647,Pavlovian,3.2.4,59.9938062331397,
CBblue.png,s,red.png,1,1,0,4,2,1,0,4,0,,,,,,,,,,,,,528.0813003786079,None,0.004578789412335027,1.492438114803008,111,4,117,4,529.5979461859424,532.5979009051916,2.008944759299993,3.5089686071605684,531.597902716423,None,532.5979009051916,None,,,,,,,,,,,,,,,,,,,,,,,,,,,,,,J,083,yes,cm,Vpav,2020_Feb_17_1647,Pavlovian,3.2.4,59.9938062331397,
CBblue.png,s,yellow.png,4,1,0,4,2,1,1,5,3,,,,,,,,,,,,,533.5645628022867,None,0.011963777818891685,1.5071081720907387,111,4,117,4,535.0813682997323,538.0812291368948,2.007090663535564,3.507084022357958,537.0812931336877,None,538.0645600854423,None,,,,,,,,,,,,,,,,,,,,,,,,,,,,,,J,083,yes,cm,Vpav,2020_Feb_17_1647,Pavlovian,3.2.4,59.9938062331397,
CBblue.png,s,green.png,2,1,0,4,2,1,2,6,1,,,,,,,,,,,,,539.081225816306,None,0.002579795249403105,1.5049639776570984,111,4,117,4,540.6479436804075,543.6478836079459,2.0050273707056476,3.504955827122103,542.6478784761275,None,543.6312876094362,None,,,,,,,,,,,,,,,,,,,,,,,,,,,,,,J,083,yes,cm,Vpav,2020_Feb_17_1647,Pavlovian,3.2.4,59.9938062331397,
CBblue.png,s,blue.png,3,1,0,4,2,1,3,7,2,,,,,,,,,,,,,544.5645784996123,None,0.012974444151041098,1.509068526682313,111,4,117,4,546.1646145430896,549.1645423957616,2.0090694322971103,3.5090682248101075,548.1645565837298,None,549.1479605852201,None,,,,,,,,,,,,,,,,,,,,,,,,,,,,,,J,083,yes,cm,Vpav,2020_Feb_17_1647,Pavlovian,3.2.4,59.9938062331397,
CBblue.png,s,green.png,2,1,0,4,2,2,0,8,1,,,,,,,,,,,,,550.0645824239455,None,0.0028095195866626455,1.5054152757966222,111,4,117,4,551.6312996843026,554.6312359893818,2.0054146720522112,3.505424331946415,553.6312411212002,None,554.6145572780351,None,,,,,,,,,,,,,,,,,,,,,,,,,,,,,,J,083,yes,cm,Vpav,2020_Feb_17_1647,Pavlovian,3.2.4,59.9938062331397,
CBblue.png,s,blue.png,3,1,0,4,2,2,1,9,2,,,,,,,,,,,,,555.5645232570987,None,0.00912014673667727,1.5013871003011445,111,4,117,4,557.1312127452638,560.1311879917866,2.001388609660353,3.5013831759697496,559.1311922179902,None,560.114518638462,None,,,,,,,,,,,,,,,,,,,,,,,,,,,,,,J,083,yes,cm,Vpav,2020_Feb_17_1647,Pavlovian,3.2.4,59.9938062331397,
CBblue.png,s,yellow.png,4,1,0,4,2,2,2,10,3,,,,,,,,,,,,,561.0645250683283,None,0.0036879661292914534,1.4904533086064475,111,4,117,4,562.6478769667683,565.6478709293351,2.0071048515019356,3.507093380379956,564.647838327197,None,565.6478709293351,None,,,,,,,,,,,,,,,,,,,,,,,,,,,,,,J,083,yes,cm,Vpav,2020_Feb_17_1647,Pavlovian,3.2.4,59.9938062331397,
CBblue.png,s,red.png,1,1,0,4,2,2,3,11,0,,,,,,,,,,,,,566.5979102632136,None,0.008340110356584773,1.4998318574871519,111,4,117,4,568.1145551649333,571.1145376563763,1.9998252163095458,3.4998342724593385,570.1145651266979,None,571.0978335878117,None,,,,,,,,,,,,,,,,,,,,,,,,,,,,,,J,083,yes,cm,Vpav,2020_Feb_17_1647,Pavlovian,3.2.4,59.9938062331397,
CBblue.png,s,,,1,0,4,2,,,,,,,,,,,,,,,,,572.1478048194422,None,,,,,,,,,,,,,,,0.016369292889066855,1.0160136880676873,573.7478976147904,None,574.7478215431311,None,s,1,2.8862484174369456,574.7478215431311,None,573.7478976147904,None,159,4,573.7478976147904,None,0.015468507843252155,None,119,4,577.8978209695761,None,,,,,,,J,083,yes,cm,Vpav,2020_Feb_17_1647,Pavlovian,3.2.4,59.9938062331397,
CBgreen.png,n,red.png,1,1,1,5,1,0,0,0,0,,,,,,,,,,,,,580.1478410440413,None,0.015605557582603069,1.5143672800149943,111,4,117,4,581.6645215666176,584.6644729652799,2.0143962596939673,3.5143606388373883,583.6644780970983,None,584.6478504020633,None,,,,,,,,,,,,,,,,,,,,,,,,,,,,,,J,083,yes,cm,Vpav,2020_Feb_17_1647,Pavlovian,3.2.4,59.9938062331397,
CBgreen.png,n,blue.png,3,1,1,5,1,0,1,1,2,,,,,,,,,,,,,585.614521053436,None,0.006781245077945641,1.4966848453805142,111,4,117,4,587.197862386367,590.1977941633722,2.0133581230365962,3.5133312564576045,589.1978005026758,None,590.1977941633722,None,,,,,,,,,,,,,,,,,,,,,,,,,,,,,,J,083,yes,cm,Vpav,2020_Feb_17_1647,Pavlovian,3.2.4,59.9938062331397,
CBgreen.png,n,yellow.png,4,1,1,5,1,0,2,2,3,,,,,,,,,,,,,591.1311399941915,None,0.010773497846457758,1.5047070848722797,111,4,117,4,592.6644862476332,595.6644934925516,2.0046470124107145,3.5046430880793196,594.6645025487014,None,595.6477924427036,None,,,,,,,,,,,,,,,,,,,,,,,,,,,,,,J,083,yes,cm,Vpav,2020_Feb_17_1647,Pavlovian,3.2.4,59.9938062331397,
CBgreen.png,n,green.png,2,1,1,5,1,0,3,3,1,,,,,,,,,,,,,596.6477682929708,None,0.004932884876325261,1.493152645032751,111,4,117,4,598.2144961188351,601.2144444987807,2.0097709820456657,3.5097634352550813,600.2144399707067,None,601.2144444987807,None,,,,,,,,,,,,,,,,,,,,,,,,,,,,,,J,083,yes,cm,Vpav,2020_Feb_17_1647,Pavlovian,3.2.4,59.9938062331397,
CBgreen.png,n,green.png,2,1,1,5,1,1,0,4,1,,,,,,,,,,,,,602.1311650495409,None,0.014411655147341662,1.5119154783515114,111,4,117,4,603.6978255580252,606.697779975404,2.0119215157865256,3.511918497068109,605.697814690644,None,606.6810979434686,None,,,,,,,,,,,,,,,,,,,,,,,,,,,,,,J,083,yes,cm,Vpav,2020_Feb_17_1647,Pavlovian,3.2.4,59.9938062331397,
CBgreen.png,n,blue.png,3,1,1,5,1,1,1,5,2,,,,,,,,,,,,,607.6311128257421,None,0.007935904197438504,1.4991435900919896,111,4,117,4,609.2144677428987,612.2144475174973,1.9991429863475787,3.4991309114811884,611.2144315182995,None,612.1977540144399,None,,,,,,,,,,,,,,,,,,,,,,,,,,,,,,J,083,yes,cm,Vpav,2020_Feb_17_1647,Pavlovian,3.2.4,59.9938062331397,
CBgreen.png,n,red.png,1,1,1,5,1,1,2,6,0,,,,,,,,,,,,,613.1477652742524,None,0.010117832587638986,1.5033812645178841,111,4,117,4,614.6645227741046,617.6644497211619,2.0033743214698916,3.5033559072981006,616.6644560604655,None,617.647748671312,None,,,,,,,,,,,,,,,,,,,,,,,,,,,,,,J,083,yes,cm,Vpav,2020_Feb_17_1647,Pavlovian,3.2.4,59.9938062331397,
CBgreen.png,n,yellow.png,4,1,1,5,1,1,3,7,3,,,,,,,,,,,,,618.631200066653,None,0.00010837193076440599,1.5002496478700778,111,4,117,4,620.1644454949583,623.1644002142075,2.000230629955695,3.5002532703310862,622.1644020254371,None,623.1477900277296,None,,,,,,,,,,,,,,,,,,,,,,,,,,,,,,J,083,yes,cm,Vpav,2020_Feb_17_1647,Pavlovian,3.2.4,59.9938062331397,
CBgreen.png,n,blue.png,3,1,1,5,1,2,0,8,2,,,,,,,,,,,,,624.1477806697076,None,0.011805597066995688,1.5067199651311967,111,4,117,4,625.7478025252167,628.7478025252167,2.0067226819774078,3.506729323153195,627.7477880353763,None,628.7310580058474,None,,,,,,,,,,,,,,,,,,,,,,,,,,,,,,J,083,yes,cm,Vpav,2020_Feb_17_1647,Pavlovian,3.2.4,59.9938062331397,
CBgreen.png,n,red.png,1,1,1,5,1,2,1,9,0,,,,,,,,,,,,,629.6310675449931,None,0.00029070241726003587,1.5006200444040587,111,4,117,4,631.1644343257067,634.1643799888061,2.000630006168649,3.500729020073777,633.1643700270415,None,634.1477595386914,None,,,,,,,,,,,,,,,,,,,,,,,,,,,,,,J,083,yes,cm,Vpav,2020_Feb_17_1647,Pavlovian,3.2.4,59.9938062331397,
CBgreen.png,n,yellow.png,4,1,1,5,1,2,2,10,3,,,,,,,,,,,,,635.1143840037003,None,0.014512782156089088,1.5120987144528044,111,4,117,4,636.7143943880856,639.7143744645546,2.012094488249204,3.5120969032232097,638.714372653325,None,639.6977008850263,None,,,,,,,,,,,,,,,,,,,,,,,,,,,,,,J,083,yes,cm,Vpav,2020_Feb_17_1647,Pavlovian,3.2.4,59.9938062331397,
CBgreen.png,n,green.png,2,1,1,5,1,2,3,11,1,,,,,,,,,,,,,640.6643724420155,None,0.008103442969513708,1.4993216943712468,111,4,117,4,642.2477614706695,645.2477312835035,1.9993192793990602,3.4993141475806624,644.2477355097071,None,645.2310296299111,None,,,,,,,,,,,,,,,,,,,,,,,,,,,,,,J,083,yes,cm,Vpav,2020_Feb_17_1647,Pavlovian,3.2.4,59.9938062331397,
CBgreen.png,n,,,1,1,5,1,,,,,,,,,,,,,,,,,646.1976945457227,None,,,,,,,,,,,,,,,0.016518115620783647,1.0163439356692834,647.8310578247256,None,648.8310366937076,None,n,1,2.967564493372265,648.8310366937076,None,647.8310578247256,None,159,4,647.8310578247256,None,0.01095280961089884,None,119,4,652.064334889179,None,,,,,,,J,083,yes,cm,Vpav,2020_Feb_17_1647,Pavlovian,3.2.4,59.9938062331397,
CBred.png,b,red.png,1,1,2,6,0,0,0,0,0,,,,,,,,,,,,,654.2810041821303,None,0.008097707410342991,1.499360635818448,111,4,117,4,655.8143745853031,658.8143347382447,1.9993908229844237,3.499443046783199,657.8143359457299,None,658.797686214064,None,,,,,,,,,,,,,,,,,,,,,,,,,,,,,,J,083,yes,cm,Vpav,2020_Feb_17_1647,Pavlovian,3.2.4,59.9938062331397,
CBred.png,b,yellow.png,4,1,2,6,0,0,1,1,3,,,,,,,,,,,,,659.7810651602067,None,0.0008585230170865543,1.5015335080588557,111,4,117,4,661.3977138051341,664.397660071978,2.001537130519864,3.5015525259732385,663.3976621850798,None,664.3809904167811,None,,,,,,,,,,,,,,,,,,,,,,,,,,,,,,J,083,yes,cm,Vpav,2020_Feb_17_1647,Pavlovian,3.2.4,59.9938062331397,
CBred.png,b,green.png,2,1,2,6,0,0,2,2,1,,,,,,,,,,,,,665.3143434925223,None,0.01154960989333631,1.5062152357077139,111,4,117,4,666.8977298043319,669.8976932778605,2.006211915118911,3.5062182544243115,668.8976893535291,None,669.8809946429847,None,,,,,,,,,,,,,,,,,,,,,,,,,,,,,,J,083,yes,cm,Vpav,2020_Feb_17_1647,Pavlovian,3.2.4,59.9938062331397,
CBred.png,b,blue.png,3,1,2,6,0,0,3,3,2,,,,,,,,,,,,,670.797652404437,None,0.01217871044354979,1.507478870496925,111,4,117,4,672.381006717851,675.3809798512739,2.0074658900139184,3.5075470934934856,674.3809626445891,None,675.3643467225484,None,,,,,,,,,,,,,,,,,,,,,,,,,,,,,,J,083,yes,cm,Vpav,2020_Feb_17_1647,Pavlovian,3.2.4,59.9938062331397,
CBred.png,b,red.png,1,1,2,6,0,1,0,4,0,,,,,,,,,,,,,676.2977173068466,None,0.014587646326617687,1.512220368733324,111,4,117,4,677.8310001672362,680.8309832624236,2.012066112312823,3.5122436128513073,679.8309702819424,None,680.8142994192585,None,,,,,,,,,,,,,,,,,,,,,,,,,,,,,,J,083,yes,cm,Vpav,2020_Feb_17_1647,Pavlovian,3.2.4,59.9938062331397,
CBred.png,b,blue.png,3,1,2,6,0,1,1,5,2,,,,,,,,,,,,,681.7976424426724,None,0.001967599513591267,1.5036689482167276,111,4,117,4,683.3976646000538,686.3976187155604,2.003682532440507,3.503681023083118,685.397627469838,None,686.3809892092959,None,,,,,,,,,,,,,,,,,,,,,,,,,,,,,,J,083,yes,cm,Vpav,2020_Feb_17_1647,Pavlovian,3.2.4,59.9938062331397,
CBred.png,b,yellow.png,4,1,2,6,0,1,2,6,3,,,,,,,,,,,,,687.297631575293,None,0.010744518167484784,1.5046738789897063,111,4,117,4,688.8976564495188,691.8976166024586,2.0046759920915065,3.5046593891493103,690.8976051313348,None,691.8809783419147,None,,,,,,,,,,,,,,,,,,,,,,,,,,,,,,J,083,yes,cm,Vpav,2020_Feb_17_1647,Pavlovian,3.2.4,59.9938062331397,
CBred.png,b,green.png,2,1,2,6,0,1,3,7,1,,,,,,,,,,,,,692.8141234280793,None,0.010117228846866055,1.5034078292264894,111,4,117,4,694.430970402691,697.4309547053635,2.0033722083699104,3.5033882075695146,696.430936593064,None,697.4142609004339,None,,,,,,,,,,,,,,,,,,,,,,,,,,,,,,J,083,yes,cm,Vpav,2020_Feb_17_1647,Pavlovian,3.2.4,59.9938062331397,
CBred.png,b,red.png,1,1,2,6,0,2,0,8,0,,,,,,,,,,,,,698.2975799552387,None,0.010678408269086503,1.5044942653457838,111,4,117,4,699.830965150124,702.8309135300697,2.0044544182856043,3.504496378447584,701.8309222843473,None,702.8140998820891,None,,,,,,,,,,,,,,,,,,,,,,,,,,,,,,J,083,yes,cm,Vpav,2020_Feb_17_1647,Pavlovian,3.2.4,59.9938062331397,
CBred.png,b,blue.png,3,1,2,6,0,2,1,9,2,,,,,,,,,,,,,703.7976119536343,None,0.0056585843576613115,1.4945158974715014,111,4,117,4,705.397606640694,708.3975698123504,2.0111390644306084,3.5111272914364235,707.3975849059334,None,708.3975698123504,None,,,,,,,,,,,,,,,,,,,,,,,,,,,,,,J,083,yes,cm,Vpav,2020_Feb_17_1647,Pavlovian,3.2.4,59.9938062331397,
CBred.png,b,green.png,2,1,2,6,0,2,2,10,1,,,,,,,,,,,,,709.3142991173881,None,0.0092982510177535,1.5017119142121373,111,4,117,4,710.8642634059688,713.8642658209428,2.001713725441732,3.501713121697321,712.8642289925992,None,713.8475514887396,None,,,,,,,,,,,,,,,,,,,,,,,,,,,,,,J,083,yes,cm,Vpav,2020_Feb_17_1647,Pavlovian,3.2.4,59.9938062331397,
CBred.png,b,yellow.png,4,1,2,6,0,2,3,11,3,,,,,,,,,,,,,714.7976309715505,None,0.013615619569463888,1.5103771403501014,111,4,117,4,716.3142589684558,719.3142194232678,2.0103744235057093,3.5103698954299034,718.3142402524136,None,719.2975935394625,None,,,,,,,,,,,,,,,,,,,,,,,,,,,,,,J,083,yes,cm,Vpav,2020_Feb_17_1647,Pavlovian,3.2.4,59.9938062331397,
CBred.png,b,,,1,2,6,0,,,,,,,,,,,,,,,,,720.3976024144904,None,,,,,,,,,,,,,,,0.016360236742912093,1.016030592883908,721.9809211070478,None,722.9809316725568,None,b,1,4.876137829773143,722.9809316725568,None,721.9809211070478,None,159,4,721.9809211070478,None,0.010883379129154491,None,119,4,728.114225219204,None,,,,,,,J,083,yes,cm,Vpav,2020_Feb_17_1647,Pavlovian,3.2.4,59.9938062331397,
CByellow.png,k,yellow.png,4,1,3,7,3,0,0,0,3,,,,,,,,,,,,,730.3309029645607,None,0.016581508672970813,1.516281146366964,111,4,117,4,731.9309556109783,734.9309136508182,1.9996558663060569,3.4996772991926264,733.9308882935984,None,734.8976235455066,None,,,,,,,,,,,,,,,,,,,,,,,,,,,,,,J,083,yes,cm,Vpav,2020_Feb_17_1647,Pavlovian,3.2.4,59.9938062331397,
CByellow.png,k,red.png,1,1,3,7,3,0,1,1,0,,,,,,,,,,,,,735.8642108802997,None,0.0005666131182806566,1.5009430470836378,111,4,117,4,737.3809837756053,740.3808615175803,2.000940632111451,3.5009361040356453,739.3808633288118,None,740.3641900511557,None,,,,,,,,,,,,,,,,,,,,,,,,,,,,,,J,083,yes,cm,Vpav,2020_Feb_17_1647,Pavlovian,3.2.4,59.9938062331397,
CByellow.png,k,green.png,2,1,3,7,3,0,2,2,1,,,,,,,,,,,,,741.3308613062709,None,0.015607972556608729,1.5143718080889812,111,4,117,4,743.0142480407012,746.014211816102,2.0143521864301874,None,745.0142133254612,None,745.9975080494078,None,,,,,,,,,,,,,,,,,,,,,,,,,,,,,,J,083,yes,cm,Vpav,2020_Feb_17_1647,Pavlovian,3.2.4,59.9938062331397,
CByellow.png,k,blue.png,3,1,3,7,3,0,3,3,2,,,,,,,,,,,,,746.8475022836592,None,0.0137098035265808,1.5105546408885857,111,4,117,4,748.397540228927,751.3975034005834,2.010533208000197,3.5105543390163803,750.3975097398888,None,751.3808289154422,None,,,,,,,,,,,,,,,,,,,,,,,,,,,,,,J,083,yes,cm,Vpav,2020_Feb_17_1647,Pavlovian,3.2.4,59.9938062331397,
CByellow.png,k,green.png,2,1,3,7,3,1,0,4,1,,,,,,,,,,,,,752.347545149436,None,0.015126185378903756,1.513374424108406,111,4,117,4,753.9142301095253,756.9141947905409,2.0133756315954088,3.513384989615588,755.9141941867965,None,756.89749011823,None,,,,,,,,,,,,,,,,,,,,,,,,,,,,,,J,083,yes,cm,Vpav,2020_Feb_17_1647,Pavlovian,3.2.4,59.9938062331397,
CByellow.png,k,yellow.png,4,1,3,7,3,1,1,5,3,,,,,,,,,,,,,757.8474947368668,None,0.01123958769494493,1.505620850399282,111,4,117,4,759.347540319488,762.3475134529108,2.005646509491271,3.5055873426445032,761.347528848366,None,762.3308169311367,None,,,,,,,,,,,,,,,,,,,,,,,,,,,,,,J,083,yes,cm,Vpav,2020_Feb_17_1647,Pavlovian,3.2.4,59.9938062331397,
CByellow.png,k,blue.png,3,1,3,7,3,1,2,6,2,,,,,,,,,,,,,763.3641719388543,None,0.014667944191387505,1.512435301359801,111,4,117,4,764.9142723715577,767.9141929793095,2.012431980770998,3.5124340938727983,766.9142192421441,None,767.8975278521884,None,,,,,,,,,,,,,,,,,,,,,,,,,,,,,,J,083,yes,cm,Vpav,2020_Feb_17_1647,Pavlovian,3.2.4,59.9938062331397,
CByellow.png,k,red.png,1,1,3,7,3,1,3,7,0,,,,,,,,,,,,,768.8475050005036,None,0.003986517207522411,1.491139764773834,111,4,117,4,770.3641595621175,773.3641188094425,2.007807004996721,3.5078039862801234,772.3641215262869,None,773.3641188094425,None,,,,,,,,,,,,,,,,,,,,,,,,,,,,,,J,083,yes,cm,Vpav,2020_Feb_17_1647,Pavlovian,3.2.4,59.9938062331397,
CByellow.png,k,green.png,2,1,3,7,3,2,0,8,1,,,,,,,,,,,,,774.3308528538637,None,0.013671767699634074,1.5104755505144567,111,4,117,4,775.9141661127323,778.9141117758318,2.01046257003145,3.5104601550592633,777.9140978897358,None,778.8974481580699,None,,,,,,,,,,,,,,,,,,,,,,,,,,,,,,J,083,yes,cm,Vpav,2020_Feb_17_1647,Pavlovian,3.2.4,59.9938062331397,
CByellow.png,k,red.png,1,1,3,7,3,2,1,9,0,,,,,,,,,,,,,779.8474400980958,None,0.001883981061837403,1.5036088757533435,111,4,117,4,781.3808210667776,784.380770352338,2.0036254786955396,3.5035687268227775,783.3807700504676,None,784.3641417516883,None,,,,,,,,,,,,,,,,,,,,,,,,,,,,,,J,083,yes,cm,Vpav,2020_Feb_17_1647,Pavlovian,3.2.4,59.9938062331397,
CByellow.png,k,yellow.png,4,1,3,7,3,2,2,10,3,,,,,,,,,,,,,785.3308214592107,None,0.004374120424472494,1.4918651623829646,111,4,117,4,786.9307720730067,789.9307974302264,2.0085653066162195,3.508567117847633,788.930793505895,None,789.9307974302264,None,,,,,,,,,,,,,,,,,,,,,,,,,,,,,,J,083,yes,cm,Vpav,2020_Feb_17_1647,Pavlovian,3.2.4,59.9938062331397,
CByellow.png,k,blue.png,3,1,3,7,3,2,3,11,2,,,,,,,,,,,,,790.8640904335061,None,0.003695211049489444,1.490543266363602,111,4,117,4,792.4141350199498,795.4140846073824,2.007187564338892,3.507165829580117,794.4140833998954,None,795.4140846073824,None,,,,,,,,,,,,,,,,,,,,,,,,,,,,,,J,083,yes,cm,Vpav,2020_Feb_17_1647,Pavlovian,3.2.4,59.9938062331397,
CByellow.png,k,,,1,3,7,3,,,,,,,,,,,,,,,,,796.430824900548,None,,,,,,,,,,,,,,,0.016338803850885597,1.0158844869965833,798.0141100853507,None,799.0141158209135,None,k,1,2.680532537840918,799.0141158209135,None,798.0141100853507,None,159,4,798.0141100853507,None,0.013066816878563259,None,119,4,801.947389806277,None,,,,,,,J,083,yes,cm,Vpav,2020_Feb_17_1647,Pavlovian,3.2.4,59.9938062331397,
CBgreen.png,n,red.png,1,2,0,8,1,0,0,0,0,,,,,,,,,,,,,804.1640754002965,None,0.0105144919562008,1.5041178313804267,111,4,117,4,805.7807654016433,808.7807608735675,2.004101530310436,3.504107567743631,807.7807647978989,None,808.7640537862862,None,,,,,,,,,,,,,,,,,,,,,,,,,,,,,,J,083,yes,cm,Vpav,2020_Feb_17_1647,Pavlovian,3.2.4,59.9938062331397,
CBgreen.png,n,blue.png,3,2,0,8,1,0,1,1,2,,,,,,,,,,,,,809.6640663441467,None,0.005321091837686254,1.4937467284689774,111,4,117,4,811.3307487081402,814.330726369637,2.010466494361026,None,813.3307761784617,None,814.330726369637,None,,,,,,,,,,,,,,,,,,,,,,,,,,,,,,J,083,yes,cm,Vpav,2020_Feb_17_1647,Pavlovian,3.2.4,59.9938062331397,
CBgreen.png,n,yellow.png,4,2,0,8,1,0,2,2,3,,,,,,,,,,,,,815.1807477723378,None,0.011888913646544097,1.5068808627293038,111,4,117,4,816.7140774228374,819.7140460281844,2.0068944469549024,3.5068702972221217,818.714024595296,None,819.6973742598857,None,,,,,,,,,,,,,,,,,,,,,,,,,,,,,,J,083,yes,cm,Vpav,2020_Feb_17_1647,Pavlovian,3.2.4,59.9938062331397,
CBgreen.png,n,green.png,2,2,0,8,1,0,3,3,1,,,,,,,,,,,,,820.7140457263122,None,0.015051321204737178,1.5131914898774994,111,4,117,4,822.3640856035581,825.3640363984778,2.0132648446924577,None,824.3640264367132,None,825.347424098898,None,,,,,,,,,,,,,,,,,,,,,,,,,,,,,,J,083,yes,cm,Vpav,2020_Feb_17_1647,Pavlovian,3.2.4,59.9938062331397,
CBgreen.png,n,red.png,1,2,0,8,1,1,0,4,0,,,,,,,,,,,,,826.1807178870422,None,0.00853783629645477,1.500266250812274,111,4,117,4,827.6973839197799,830.6973492045381,2.000226101881708,3.5002064802229143,829.6973446764623,None,830.6806795493412,None,,,,,,,,,,,,,,,,,,,,,,,,,,,,,,J,083,yes,cm,Vpav,2020_Feb_17_1647,Pavlovian,3.2.4,59.9938062331397,
CBgreen.png,n,green.png,2,2,0,8,1,1,1,5,1,,,,,,,,,,,,,831.6806858886466,None,0.005914269659115234,1.4950465878591785,111,4,117,4,833.2473759805544,836.2473409634422,2.011739789044441,3.51170356444527,835.2473391522108,None,836.2473409634422,None,,,,,,,,,,,,,,,,,,,,,,,,,,,,,,J,083,yes,cm,Vpav,2020_Feb_17_1647,Pavlovian,3.2.4,59.9938062331397,
CBgreen.png,n,yellow.png,4,2,0,8,1,1,2,6,3,,,,,,,,,,,,,837.1806629464008,None,0.0139929591496184,1.5111070660350379,111,4,117,4,838.6974144088181,841.6973540344843,2.0111010286018427,3.5110871425040386,840.6973673168377,None,841.6806614370416,None,,,,,,,,,,,,,,,,,,,,,,,,,,,,,,J,083,yes,cm,Vpav,2020_Feb_17_1647,Pavlovian,3.2.4,59.9938062331397,
CBgreen.png,n,blue.png,3,2,0,8,1,1,3,7,2,,,,,,,,,,,,,842.6973706374265,None,0.016404611878897413,1.5159738410129648,111,4,117,4,844.2806851037803,847.2806518978978,1.9993153550694842,3.4992549807357136,846.2806479735664,None,847.2473454915162,None,,,,,,,,,,,,,,,,,,,,,,,,,,,,,,J,083,yes,cm,Vpav,2020_Feb_17_1647,Pavlovian,3.2.4,59.9938062331397,
CBgreen.png,n,yellow.png,4,2,0,8,1,2,0,8,3,,,,,,,,,,,,,848.1806544939936,None,0.006754076628567418,1.4966232635615597,111,4,117,4,849.6973359221847,852.6973416577457,2.013378348437982,3.5133469537850033,851.6973549400991,None,852.6973416577457,None,,,,,,,,,,,,,,,,,,,,,,,,,,,,,,J,083,yes,cm,Vpav,2020_Feb_17_1647,Pavlovian,3.2.4,59.9938062331397,
CBgreen.png,n,blue.png,3,2,0,8,1,2,1,9,2,,,,,,,,,,,,,853.7139690509084,None,0.009754680975675,1.502631113431562,111,4,117,4,855.2973372504202,858.2972980071027,2.0025963981915993,3.5026434901701577,857.2972983089749,None,858.280622918217,None,,,,,,,,,,,,,,,,,,,,,,,,,,,,,,J,083,yes,cm,Vpav,2020_Feb_17_1647,Pavlovian,3.2.4,59.9938062331397,
CBgreen.png,n,red.png,1,2,0,8,1,2,2,10,0,,,,,,,,,,,,,859.1806282311591,None,0.015870299032030744,1.5148753300254612,111,4,117,4,860.7807116684871,863.7806419361314,2.0148973666564416,3.5149118564968376,862.7806564259718,None,863.7639439049999,None,,,,,,,,,,,,,,,,,,,,,,,,,,,,,,J,083,yes,cm,Vpav,2020_Feb_17_1647,Pavlovian,3.2.4,59.9938062331397,
CBgreen.png,n,green.png,2,2,0,8,1,2,3,11,1,,,,,,,,,,,,,864.6639591797066,None,0.00016995375153783243,1.5001237673877768,111,4,117,4,866.2473310016758,869.2472775703918,2.000126484232169,3.5001551620407554,868.2472751554178,None,869.2306175750891,None,,,,,,,,,,,,,,,,,,,,,,,,,,,,,,J,083,yes,cm,Vpav,2020_Feb_17_1647,Pavlovian,3.2.4,59.9938062331397,
CBgreen.png,n,,,2,0,8,1,,,,,,,,,,,,,,,,,870.2639448106147,None,,,,,,,,,,,,,,,0.016408234334448935,1.0160221404767071,871.7972795929327,None,872.7972762723439,None,n,1,4.821881227990161,872.7972762723439,None,871.7972795929327,None,159,4,871.7972795929327,None,0.010257297297357582,None,119,4,877.8806468868279,None,,,,,,,J,083,yes,cm,Vpav,2020_Feb_17_1647,Pavlovian,3.2.4,59.9938062331397,
CByellow.png,k,yellow.png,4,2,1,9,3,0,0,0,3,,,,,,,,,,,,,880.0972624466212,None,0.015971727911164635,1.5150609810989408,111,4,117,4,881.7139868613376,884.7139162233689,2.015063697943333,3.5150757728097233,883.7139666359362,None,884.6972701141622,None,,,,,,,,,,,,,,,,,,,,,,,,,,,,,,J,083,yes,cm,Vpav,2020_Feb_17_1647,Pavlovian,3.2.4,59.9938062331397,
CByellow.png,k,green.png,2,2,1,9,3,0,1,1,1,,,,,,,,,,,,,885.6472514886791,None,0.0001796136439224938,1.5002055746062979,111,4,117,4,887.1972649823438,890.1972740384936,2.0002079895803035,3.500175387440322,889.1972341914334,None,890.1806466453309,None,,,,,,,,,,,,,,,,,,,,,,,,,,,,,,J,083,yes,cm,Vpav,2020_Feb_17_1647,Pavlovian,3.2.4,59.9938062331397,
CByellow.png,k,blue.png,3,2,1,9,3,0,2,2,2,,,,,,,,,,,,,891.1139076502132,None,0.005897666715100058,1.4949222167306289,111,4,117,4,892.6639145027002,895.6639093708818,2.0115861363647127,3.5116084748678986,894.6638918623248,None,895.6639093708818,None,,,,,,,,,,,,,,,,,,,,,,,,,,,,,,J,083,yes,cm,Vpav,2020_Feb_17_1647,Pavlovian,3.2.4,59.9938062331397,
CByellow.png,k,red.png,1,2,1,9,3,0,3,3,0,,,,,,,,,,,,,896.6139100651853,None,0.012996480783840525,1.5091787098408531,111,4,117,4,898.1472699028509,901.1471983592673,2.009152145134067,3.509204368932842,900.1472197921557,None,901.1305332321463,None,,,,,,,,,,,,,,,,,,,,,,,,,,,,,,J,083,yes,cm,Vpav,2020_Feb_17_1647,Pavlovian,3.2.4,59.9938062331397,
CByellow.png,k,red.png,1,2,1,9,3,1,0,4,0,,,,,,,,,,,,,902.0972485605253,None,0.009378548882523319,1.5019162813314324,111,4,117,4,903.6305851540728,906.6305767016656,2.0018854904210457,3.501910847640829,905.6306014551428,None,906.6139164044907,None,,,,,,,,,,,,,,,,,,,,,,,,,,,,,,J,083,yes,cm,Vpav,2020_Feb_17_1647,Pavlovian,3.2.4,59.9938062331397,
CByellow.png,k,yellow.png,4,2,1,9,3,1,1,5,3,,,,,,,,,,,,,907.597229542609,None,0.0012388813156576362,1.5022610187716054,111,4,117,4,909.2139044503729,912.2139044503729,2.0022592075420107,3.5022592075420107,911.2138796968957,None,912.197232682076,None,,,,,,,,,,,,,,,,,,,,,,,,,,,,,,J,083,yes,cm,Vpav,2020_Feb_17_1647,Pavlovian,3.2.4,59.9938062331397,
CByellow.png,k,green.png,2,2,1,9,3,1,2,6,1,,,,,,,,,,,,,913.1305368546055,None,0.001543469825264765,1.5028946473976248,111,4,117,4,914.6972972826115,917.6972513981182,2.0028958548828086,3.5028913268088218,916.6972417382258,None,917.6805150292839,None,,,,,,,,,,,,,,,,,,,,,,,,,,,,,,J,083,yes,cm,Vpav,2020_Feb_17_1647,Pavlovian,3.2.4,59.9938062331397,
CByellow.png,k,blue.png,3,2,1,9,3,1,3,7,2,,,,,,,,,,,,,918.613893462245,None,0.013427553520159563,1.5101990360672062,111,4,117,4,920.2638796063347,923.2638400611468,2.0101443972944253,3.510205375370788,922.2638267787934,None,923.2472123661119,None,,,,,,,,,,,,,,,,,,,,,,,,,,,,,,J,083,yes,cm,Vpav,2020_Feb_17_1647,Pavlovian,3.2.4,59.9938062331397,
CByellow.png,k,yellow.png,4,2,1,9,3,2,0,8,3,,,,,,,,,,,,,924.1139052352391,None,0.01506581104513316,1.5132917112714495,111,4,117,4,925.6305371564777,928.6304954981879,2.013286881325257,3.5132832588660676,927.6304831214493,None,928.6138662937938,None,,,,,,,,,,,,,,,,,,,,,,,,,,,,,,J,083,yes,cm,Vpav,2020_Feb_17_1647,Pavlovian,3.2.4,59.9938062331397,
CByellow.png,k,red.png,1,2,1,9,3,2,1,9,0,,,,,,,,,,,,,929.6304864420381,None,0.0007160395907703787,1.5012790302462236,111,4,117,4,931.1472366969683,934.147161832796,2.001266653507628,3.501285369551624,933.147159417822,None,934.1305081767969,None,,,,,,,,,,,,,,,,,,,,,,,,,,,,,,J,083,yes,cm,Vpav,2020_Feb_17_1647,Pavlovian,3.2.4,59.9938062331397,
CByellow.png,k,green.png,2,2,1,9,3,2,2,10,1,,,,,,,,,,,,,935.1138656900512,None,0.002219964226242155,1.5042071853949892,111,4,117,4,936.7139126009079,939.7138480003723,2.0042086947541975,3.5042032610635943,938.7138513209593,None,939.6971451392928,None,,,,,,,,,,,,,,,,,,,,,,,,,,,,,,J,083,yes,cm,Vpav,2020_Feb_17_1647,Pavlovian,3.2.4,59.9938062331397,
CByellow.png,k,blue.png,3,2,1,9,3,2,3,11,2,,,,,,,,,,,,,940.613859652618,None,0.010941942235149327,1.5050146920984844,111,4,117,4,942.1804785028125,945.1804652204592,2.004998692900699,3.504995976054488,944.180466126074,None,945.1638022064399,None,,,,,,,,,,,,,,,,,,,,,,,,,,,,,,J,083,yes,cm,Vpav,2020_Feb_17_1647,Pavlovian,3.2.4,59.9938062331397,
CByellow.png,k,,,2,1,9,3,,,,,,,,,,,,,,,,,946.2138733575921,None,,,,,,,,,,,,,,,0.016365066687285434,1.0159825952869141,947.8138746858276,None,948.8138617053446,None,k,1,2.0348172740632435,948.8138617053446,None,947.8138746858276,None,159,4,947.8138746858276,None,0.011432785560828052,None,119,4,951.113794448338,None,,,,,,,J,083,yes,cm,Vpav,2020_Feb_17_1647,Pavlovian,3.2.4,59.9938062331397,
CBblue.png,s,blue.png,3,2,2,10,2,0,0,0,2,,,,,,,,,,,,,953.3305002677607,None,0.006312740255452809,1.4957704761091009,111,4,117,4,954.9971445959236,957.9971053526078,2.0124020954754087,None,956.997098409558,None,957.9971053526078,None,,,,,,,,,,,,,,,,,,,,,,,,,,,,,,J,083,yes,cm,Vpav,2020_Feb_17_1647,Pavlovian,3.2.4,59.9938062331397,
CBblue.png,s,green.png,2,2,2,10,2,0,1,1,1,,,,,,,,,,,,,958.8471394339176,None,0.0026151142355956836,1.5050306912962697,111,4,117,4,960.4471314041311,963.4470994057356,2.005031596911067,3.505026163220464,962.447103330067,None,963.430474427545,None,,,,,,,,,,,,,,,,,,,,,,,,,,,,,,J,083,yes,cm,Vpav,2020_Feb_17_1647,Pavlovian,3.2.4,59.9938062331397,
CBblue.png,s,red.png,1,2,2,10,2,0,2,2,0,,,,,,,,,,,,,964.3471355095862,None,0.015454621749086073,1.5140509185075643,111,4,117,4,965.8804905173056,968.880436180405,2.0140886524659436,3.514044881074369,967.8804231999238,None,968.8637973161185,None,,,,,,,,,,,,,,,,,,,,,,,,,,,,,,J,083,yes,cm,Vpav,2020_Feb_17_1647,Pavlovian,3.2.4,59.9938062331397,
CBblue.png,s,yellow.png,4,2,2,10,2,0,3,3,3,,,,,,,,,,,,,969.8304987584015,None,0.01155142112475005,1.506289798009675,111,4,117,4,971.3804588207804,974.3804177662332,2.0062520640512957,3.5062934204688645,973.3804521796046,None,974.3637453941938,None,,,,,,,,,,,,,,,,,,,,,,,,,,,,,,J,083,yes,cm,Vpav,2020_Feb_17_1647,Pavlovian,3.2.4,59.9938062331397,
CBblue.png,s,red.png,1,2,2,10,2,1,0,4,0,,,,,,,,,,,,,975.3804207849498,None,0.004225297694574692,1.4915765730729618,111,4,117,4,976.9305064259424,979.9303899034785,2.0082583031344257,3.5082567937770364,978.9304031858319,None,979.9303899034785,None,,,,,,,,,,,,,,,,,,,,,,,,,,,,,,J,083,yes,cm,Vpav,2020_Feb_17_1647,Pavlovian,3.2.4,59.9938062331397,
CBblue.png,s,green.png,2,2,2,10,2,1,1,5,1,,,,,,,,,,,,,980.830394612678,None,0.0015163013740675524,1.5028146514032414,111,4,117,4,982.4137990367872,985.4137268894592,2.0028101233292546,3.5027895960556634,984.4137320212776,None,985.3970563286493,None,,,,,,,,,,,,,,,,,,,,,,,,,,,,,,J,083,yes,cm,Vpav,2020_Feb_17_1647,Pavlovian,3.2.4,59.9938062331397,
CBblue.png,s,yellow.png,4,2,2,10,2,1,2,6,3,,,,,,,,,,,,,986.330408498774,None,0.00501439022445993,1.4931758891507343,111,4,117,4,987.8470754371247,990.8470863045059,2.0098787502302002,3.5098929381983908,989.8470721165377,None,990.8470863045059,None,,,,,,,,,,,,,,,,,,,,,,,,,,,,,,J,083,yes,cm,Vpav,2020_Feb_17_1647,Pavlovian,3.2.4,59.9938062331397,
CBblue.png,s,blue.png,3,2,2,10,2,1,3,7,2,,,,,,,,,,,,,991.8635606487333,None,0.007062589471388492,1.4972538734691625,111,4,117,4,993.4637406849943,996.4637062716247,2.0138854928354704,3.5138782479170914,995.4637053660099,None,996.4637062716247,None,,,,,,,,,,,,,,,,,,,,,,,,,,,,,,J,083,yes,cm,Vpav,2020_Feb_17_1647,Pavlovian,3.2.4,59.9938062331397,
CBblue.png,s,yellow.png,4,2,2,10,2,2,0,8,3,,,,,,,,,,,,,997.3637073583632,None,0.0031304091680794954,1.4894049083177379,111,4,117,4,998.880400257678,1001.8804029745224,2.006084223407015,3.506037433298843,1000.8804020689076,None,1001.8804029745224,None,,,,,,,,,,,,,,,,,,,,,,,,,,,,,,J,083,yes,cm,Vpav,2020_Feb_17_1647,Pavlovian,3.2.4,59.9938062331397,
CBblue.png,s,red.png,1,2,2,10,2,2,1,9,0,,,,,,,,,,,,,1002.8635663842961,None,0.00938881251931889,1.501925941225636,111,4,117,4,1004.3970587436215,1007.3970225190224,2.001886396037662,3.5019211112794437,1006.3970270470963,None,1007.3803592031309,None,,,,,,,,,,,,,,,,,,,,,,,,,,,,,,J,083,yes,cm,Vpav,2020_Feb_17_1647,Pavlovian,3.2.4,59.9938062331397,
CBblue.png,s,green.png,2,2,2,10,2,2,2,10,1,,,,,,,,,,,,,1008.3303671423564,None,0.003221876280804281,1.4895754658064106,111,4,117,4,1009.8970810821247,1012.8970056142098,2.0062565921252826,3.5062505546920875,1011.8970152741022,None,1012.8970056142098,None,,,,,,,,,,,,,,,,,,,,,,,,,,,,,,J,083,yes,cm,Vpav,2020_Feb_17_1647,Pavlovian,3.2.4,59.9938062331397,
CBblue.png,s,blue.png,3,2,2,10,2,2,3,11,2,,,,,,,,,,,,,1013.8470259301721,None,0.006737171815984766,1.4965882464493916,111,4,117,4,1015.4137036453412,1018.413671948816,2.013272391484861,3.51329805057685,1017.4136656095125,None,1018.413671948816,None,,,,,,,,,,,,,,,,,,,,,,,,,,,,,,J,083,yes,cm,Vpav,2020_Feb_17_1647,Pavlovian,3.2.4,59.9938062331397,
CBblue.png,s,,,2,2,10,2,,,,,,,,,,,,,,,,,1019.4470375220444,None,,,,,,,,,,,,,,,0.016450798240839504,1.016169755721421,1020.9637095922135,None,1021.9636830275067,None,n,0,3.9185809858281573,1021.9636830275067,None,1020.9637095922135,None,159,4,1020.9637095922135,None,0.007225600165838841,None,119,4,1026.1469876528445,None,,,,,,,J,083,yes,cm,Vpav,2020_Feb_17_1647,Pavlovian,3.2.4,59.9938062331397,
CBred.png,b,blue.png,3,2,3,11,0,0,0,0,2,,,,,,,,,,,,,1028.363707056491,None,0.013051421427007881,1.5092140288252267,111,4,117,4,1030.030345950965,1033.0303024814457,2.009222179360222,3.5092318392526067,1032.0302891990923,None,1033.013672673309,None,,,,,,,,,,,,,,,,,,,,,,,,,,,,,,J,083,yes,cm,Vpav,2020_Feb_17_1647,Pavlovian,3.2.4,59.9938062331397,
CBred.png,b,green.png,2,2,3,11,0,0,1,1,1,,,,,,,,,,,,,1033.88034441142,None,0.011430974331233301,1.505991246933263,111,4,117,4,1035.4636978192193,1038.4636280868635,2.005993058162858,3.5060455838338385,1037.4636329168115,None,1038.44696960092,None,,,,,,,,,,,,,,,,,,,,,,,,,,,,,,J,083,yes,cm,Vpav,2020_Feb_17_1647,Pavlovian,3.2.4,59.9938062331397,
CBred.png,b,yellow.png,4,2,3,11,0,0,2,2,3,,,,,,,,,,,,,1039.3803655424363,None,0.0161021364692715,1.5154147746889066,111,4,117,4,1040.897017387204,1043.896968483994,2.015397266131913,3.515436811319887,1042.8969322593948,None,1043.8803217710447,None,,,,,,,,,,,,,,,,,,,,,,,,,,,,,,J,083,yes,cm,Vpav,2020_Feb_17_1647,Pavlovian,3.2.4,59.9938062331397,
CBred.png,b,red.png,1,2,3,11,0,0,3,3,0,,,,,,,,,,,,,1044.8969410136724,None,0.011692697064063395,1.5065566525609029,111,4,117,4,1046.4303213786116,1049.4302742866312,2.0065312953411194,3.506554841331308,1048.4302736828886,None,1049.4136236493505,None,,,,,,,,,,,,,,,,,,,,,,,,,,,,,,J,083,yes,cm,Vpav,2020_Feb_17_1647,Pavlovian,3.2.4,59.9938062331397,
CBred.png,b,yellow.png,4,2,3,11,0,1,0,4,3,,,,,,,,,,,,,1050.3636167968634,None,0.002561984822023078,1.504984806802895,111,4,117,4,1051.8969989730322,1054.8969705970958,2.0050068434338755,3.5049739394235075,1053.8969654652774,None,1054.8803015456433,None,,,,,,,,,,,,,,,,,,,,,,,,,,,,,,J,083,yes,cm,Vpav,2020_Feb_17_1647,Pavlovian,3.2.4,59.9938062331397,
CBred.png,b,blue.png,3,2,3,11,0,1,1,5,2,,,,,,,,,,,,,1055.9136387429335,None,0.013835985882906243,1.5107891951720376,111,4,117,4,1057.4804227169298,1060.4803167599748,2.0107843652240263,3.5107798371500394,1059.4803206843062,None,1060.4635897491626,None,,,,,,,,,,,,,,,,,,,,,,,,,,,,,,J,083,yes,cm,Vpav,2020_Feb_17_1647,Pavlovian,3.2.4,59.9938062331397,
CBred.png,b,green.png,2,2,3,11,0,1,2,6,1,,,,,,,,,,,,,1061.3803730892269,None,0.0021728722440457204,1.5041359436800121,111,4,117,4,1062.9635985034402,1065.9635625807132,2.004127189402425,3.5041223594544135,1064.9635746555796,None,1065.9468944348755,None,,,,,,,,,,,,,,,,,,,,,,,,,,,,,,J,083,yes,cm,Vpav,2020_Feb_17_1647,Pavlovian,3.2.4,59.9938062331397,
CBred.png,b,red.png,1,2,3,11,0,1,3,7,0,,,,,,,,,,,,,1066.8802278889561,None,0.002759710761893075,1.4886731714013877,111,4,117,4,1068.3800727269208,1071.3802384544651,2.0053533921054623,3.505316261889675,1070.3802529443055,None,1071.3802384544651,None,,,,,,,,,,,,,,,,,,,,,,,,,,,,,,J,083,yes,cm,Vpav,2020_Feb_17_1647,Pavlovian,3.2.4,59.9938062331397,
CBred.png,b,yellow.png,4,2,3,11,0,2,0,8,3,,,,,,,,,,,,,1072.363583892853,None,0.006348059239826398,1.4958091156822775,111,4,117,4,1073.9135970846437,1076.9135524076373,2.012439225689377,3.512431377026587,1075.9135533132521,None,1076.9135524076373,None,,,,,,,,,,,,,,,,,,,,,,,,,,,,,,J,083,yes,cm,Vpav,2020_Feb_17_1647,Pavlovian,3.2.4,59.9938062331397,
CBred.png,b,green.png,2,2,3,11,0,2,1,9,1,,,,,,,,,,,,,1077.8969944449582,None,0.007927753662443138,1.4989817868790851,111,4,117,4,1079.463587937933,1082.4635426571822,2.015640574694771,3.5156309148023865,1081.4635450721562,None,1082.4635426571822,None,,,,,,,,,,,,,,,,,,,,,,,,,,,,,,J,083,yes,cm,Vpav,2020_Feb_17_1647,Pavlovian,3.2.4,59.9938062331397,
CBred.png,b,blue.png,3,2,3,11,0,2,2,10,2,,,,,,,,,,,,,1083.3802179271916,None,0.00925387588540616,1.5015510166158492,111,4,117,4,1084.94690439664,1087.9468690776557,2.001592373035237,3.5015642989692424,1086.9468687757835,None,1087.930243797593,None,,,,,,,,,,,,,,,,,,,,,,,,,,,,,,J,083,yes,cm,Vpav,2020_Feb_17_1647,Pavlovian,3.2.4,59.9938062331397,
CBred.png,b,red.png,1,2,3,11,0,2,3,11,0,,,,,,,,,,,,,1088.8802170215768,None,0.0024982899012684356,1.5048586244465696,111,4,117,4,1090.4135970846437,1093.4135442571023,2.0047584030544385,3.5047967407554097,1092.4135442571023,None,1093.3968438109969,None,,,,,,,,,,,,,,,,,,,,,,,,,,,,,,J,083,yes,cm,Vpav,2020_Feb_17_1647,Pavlovian,3.2.4,59.9938062331397,
CBred.png,b,,,2,3,11,0,,,,,,,,,,,,,,,,,1094.4635589582522,None,,,,,,,,,,,,,,,0.016410649306635605,1.0161265880706196,1096.0635575696433,None,1097.0635213450441,None,b,1,3.370192467335073,1097.0635213450441,None,1096.0635575696433,None,159,4,1096.0635575696433,None,0.00925568711500091,None,119,4,1100.6968794922268,None,,,,,,,J,083,yes,cm,Vpav,2020_Feb_17_1647,Pavlovian,3.2.4,59.9938062331397,
,,,,,,,,,,,,,,,,,,,,,,,,,,,,,,,,,,,,,,,,,,,,,,,,,,,,,,,,,,,,,,,1102.8301621714963,None,1104.5968365057033,None,1131.7634506467002,None,,,,,,,,,,
