Onset,Condition,Dur,p_onset,p_offset,trials.thisRepN,trials.thisTrialN,trials.thisN,trials.thisIndex,p_port_2.started,p_port_2.stopped,p_port_2_start,test_trigger.started,test_trigger.stopped,p_port.started,p_port.stopped,CStest.started,CStest.stopped,p_port_start,p_port_end,pressL,pressR,text_2.started,text_2.stopped,text_3.started,text_3.stopped,key_resp.keys,key_resp.rt,key_resp.started,key_resp.stopped,text.started,text.stopped,version,CB,participant,participant initials,phase,date,expName,psychopyVersion,frameRate,
28,CBblue.png,4,132,133,0,0,0,0,0.010257750100208796,None,4,99.42465464372253,None,0.014203605192960822,4.0118945888298185,113.79136321017722,None,132,4,8.0,0.0,,,,,,,,,,,J,yes,083,cm,Vpit,2020_Feb_17_1706,transfer,3.2.4,60.00271696785502,
32,vend.png,2,4,0,0,1,1,1,,,,,,0.009565830061546876,2.0025186360489897,118.27466548091616,None,4,4,0.0,0.0,,,,,,,,,,,J,yes,083,cm,Vpit,2020_Feb_17_1706,transfer,3.2.4,60.00271696785502,
34,CByellow.png,4,140,141,0,2,2,2,,,,,,0.010814914634465822,4.004990602736143,120.70798504890081,None,140,4,0.0,0.0,,,,,,,,,,,J,yes,083,cm,Vpit,2020_Feb_17_1706,transfer,3.2.4,60.00271696785502,
38,vend.png,2,4,0,0,3,3,3,,,,,,0.010227774248050991,2.0038519428180734,125.14131971047027,None,4,4,0.0,0.0,,,,,,,,,,,J,yes,083,cm,Vpit,2020_Feb_17_1706,transfer,3.2.4,60.00271696785502,
40,CBgreen.png,4,134,135,0,4,4,4,,,,,,0.005841246898853569,3.9951558955835935,127.55797384946163,None,134,4,7.0,0.0,,,,,,,,,,,J,yes,083,cm,Vpit,2020_Feb_17_1706,transfer,3.2.4,60.00271696785502,
44,vend.png,2,4,0,0,5,5,5,,,,,,0.011465176386991516,2.0064507861661696,132.02467861233345,None,4,4,2.0,0.0,,,,,,,,,,,J,yes,083,cm,Vpit,2020_Feb_17_1706,transfer,3.2.4,60.00271696785502,
46,CBred.png,4,126,127,0,6,6,6,,,,,,0.003527400591337937,3.99045303692219,134.4744845994137,None,126,4,7.0,0.0,,,,,,,,,,,J,yes,083,cm,Vpit,2020_Feb_17_1706,transfer,3.2.4,60.00271696785502,
50,vend.png,2,4,0,0,7,7,7,,,,,,0.01178996011185518,2.007071404121234,138.9079339722157,None,4,4,0.0,0.0,,,,,,,,,,,J,yes,083,cm,Vpit,2020_Feb_17_1706,transfer,3.2.4,60.00271696785502,
52,CBgreen.png,4,134,135,0,8,8,8,,,,,,0.007486447471819702,3.9983496977965842,141.32462826013943,None,134,4,9.0,0.0,,,,,,,,,,,J,yes,083,cm,Vpit,2020_Feb_17_1706,transfer,3.2.4,60.00271696785502,
56,vend.png,2,4,0,0,9,9,9,,,,,,0.014173568964906735,2.0117335402992467,145.79132275937263,None,4,4,0.0,0.0,,,,,,,,,,,J,yes,083,cm,Vpit,2020_Feb_17_1706,transfer,3.2.4,60.00271696785502,
58,CBblue.png,4,132,133,0,10,10,10,,,,,,0.00047215747144946363,4.001056882887497,148.2413056432506,None,132,4,4.0,0.0,,,,,,,,,,,J,yes,083,cm,Vpit,2020_Feb_17_1706,transfer,3.2.4,60.00271696785502,
62,vend.png,2,4,0,0,11,11,11,,,,,,0.005534847157832701,1.994387632195867,152.67457449679569,None,4,4,2.0,0.0,,,,,,,,,,,J,yes,083,cm,Vpit,2020_Feb_17_1706,transfer,3.2.4,60.00271696785502,
64,CByellow.png,4,140,141,0,12,12,12,,,,,,0.011786639524871134,4.007049669362459,155.10792274258893,None,140,4,0.0,0.0,,,,,,,,,,,J,yes,083,cm,Vpit,2020_Feb_17_1706,transfer,3.2.4,60.00271696785502,
68,vend.png,2,4,0,0,13,13,13,,,,,,0.011737464630641625,2.0069437425936485,159.55792313502207,None,4,4,0.0,0.0,,,,,,,,,,,J,yes,083,cm,Vpit,2020_Feb_17_1706,transfer,3.2.4,60.00271696785502,
70,CBgreen.png,4,134,135,0,14,14,14,,,,,,0.012729988475257414,4.008983459245428,162.0079238293274,None,134,4,18.0,0.0,,,,,,,,,,,J,yes,083,cm,Vpit,2020_Feb_17_1706,transfer,3.2.4,60.00271696785502,
74,vend.png,2,4,0,0,15,15,15,,,,,,0.0032421318683191203,1.9898224270145874,166.441031483404,None,4,4,0.0,0.0,,,,,,,,,,,J,yes,083,cm,Vpit,2020_Feb_17_1706,transfer,3.2.4,60.00271696785502,
76,CBred.png,4,126,127,0,16,16,16,,,,,,0.0017626588396524312,4.003618263961471,168.87456024845233,None,126,4,9.0,0.0,,,,,,,,,,,J,yes,083,cm,Vpit,2020_Feb_17_1706,transfer,3.2.4,60.00271696785502,
80,vend.png,2,4,0,0,17,17,17,,,,,,0.005075398486951599,1.9936054827157932,173.2912234435953,None,4,4,0.0,0.0,,,,,,,,,,,J,yes,083,cm,Vpit,2020_Feb_17_1706,transfer,3.2.4,60.00271696785502,
82,CBblue.png,4,132,133,0,18,18,18,,,,,,0.014914663899617153,4.013446661994749,175.74119938442345,None,132,4,12.0,0.0,,,,,,,,,,,J,yes,083,cm,Vpit,2020_Feb_17_1706,transfer,3.2.4,60.00271696785502,
86,vend.png,2,4,0,0,19,19,19,,,,,,0.005139697152117151,1.9936447260315617,180.1911867963754,None,4,4,0.0,0.0,,,,,,,,,,,J,yes,083,cm,Vpit,2020_Feb_17_1706,transfer,3.2.4,60.00271696785502,
88,CByellow.png,4,140,141,0,20,20,20,,,,,,0.010744548348156968,4.004894879230051,182.60789406478034,None,140,4,0.0,0.0,,,,,,,,,,,J,yes,083,cm,Vpit,2020_Feb_17_1706,transfer,3.2.4,60.00271696785502,
92,vend.png,2,4,0,0,21,21,21,,,,,,0.001673576511166175,2.003518314253597,187.02454307195512,None,4,4,0.0,0.0,,,,,,,,,,,J,yes,083,cm,Vpit,2020_Feb_17_1706,transfer,3.2.4,60.00271696785502,
94,CBred.png,4,126,127,0,22,22,22,,,,,,0.0100922036835982,4.003586869308492,189.4411839285949,None,126,4,11.0,0.0,,,,,,,,,,,J,yes,083,cm,Vpit,2020_Feb_17_1706,transfer,3.2.4,60.00271696785502,
98,vend.png,2,4,0,0,23,23,23,,,,,,0.01201364701410057,2.007491911348552,193.89100742423216,None,4,4,0.0,0.0,,,,,,,,,,,J,yes,083,cm,Vpit,2020_Feb_17_1706,transfer,3.2.4,60.00271696785502,
100,CByellow.png,4,140,141,0,24,24,24,,,,,,0.007843863520974992,3.9990162304293335,196.30792992713396,None,140,4,0.0,0.0,,,,,,,,,,,J,yes,083,cm,Vpit,2020_Feb_17_1706,transfer,3.2.4,60.00271696785502,
104,vend.png,2,4,0,0,25,25,25,,,,,,0.008355535994269303,2.0002243208346044,200.7244868634516,None,4,4,0.0,0.0,,,,,,,,,,,J,yes,083,cm,Vpit,2020_Feb_17_1706,transfer,3.2.4,60.00271696785502,
106,CBgreen.png,4,134,135,0,26,26,26,,,,,,0.008716000951608294,4.000806057720183,203.15782484560805,None,134,4,17.0,0.0,,,,,,,,,,,J,yes,083,cm,Vpit,2020_Feb_17_1706,transfer,3.2.4,60.00271696785502,
110,vend.png,2,4,0,0,27,27,27,,,,,,0.004675448719353881,1.99279921368543,207.6078176912506,None,4,4,0.0,0.0,,,,,,,,,,,J,yes,083,cm,Vpit,2020_Feb_17_1706,transfer,3.2.4,60.00271696785502,
112,CBblue.png,4,132,133,0,28,28,28,,,,,,0.010299136709363665,4.004072731753695,210.12449549698067,None,132,4,9.0,0.0,,,,,,,,,,,J,yes,083,cm,Vpit,2020_Feb_17_1706,transfer,3.2.4,60.00271696785502,
116,vend.png,2,4,0,0,29,29,29,,,,,,0.01223310771456454,2.007938077669678,214.57446449476083,None,4,4,0.0,0.0,,,,,,,,,,,J,yes,083,cm,Vpit,2020_Feb_17_1706,transfer,3.2.4,60.00271696785502,
118,CBred.png,4,126,127,0,30,30,30,,,,,,0.0033263238747167634,3.990063290413673,216.97427177989084,None,126,4,0.0,15.0,,,,,,,,,,,J,yes,083,cm,Vpit,2020_Feb_17_1706,transfer,3.2.4,60.00271696785502,
122,vend.png,2,4,0,0,31,31,31,,,,,,0.012266313600775902,2.0080174699196505,221.42448227500245,None,4,4,0.0,0.0,,,,,,,,,,,J,yes,083,cm,Vpit,2020_Feb_17_1706,transfer,3.2.4,60.00271696785502,
124,CBgreen.png,4,134,135,0,32,32,32,,,,,,0.009194769410896697,4.001882230204501,223.87447210192659,None,134,4,14.0,0.0,,,,,,,,,,,J,yes,083,cm,Vpit,2020_Feb_17_1706,transfer,3.2.4,60.00271696785502,
128,vend.png,2,4,0,0,33,33,33,,,,,,0.006657507881755009,1.9967491742318089,228.30776480333407,None,4,4,0.0,0.0,,,,,,,,,,,J,yes,083,cm,Vpit,2020_Feb_17_1706,transfer,3.2.4,60.00271696785502,
130,CByellow.png,4,140,141,0,34,34,34,,,,,,0.006312166697171051,3.9960464169962506,230.72453878537817,None,140,4,0.0,0.0,,,,,,,,,,,J,yes,083,cm,Vpit,2020_Feb_17_1706,transfer,3.2.4,60.00271696785502,
134,vend.png,2,4,0,0,35,35,35,,,,,,0.013314049772816361,2.0100740611960646,235.1244499143595,None,4,4,0.0,0.0,,,,,,,,,,,J,yes,083,cm,Vpit,2020_Feb_17_1706,transfer,3.2.4,60.00271696785502,
136,CBblue.png,4,132,133,0,36,36,36,,,,,,0.005911039630518644,3.995247724946239,237.59107769995535,None,132,4,11.0,0.0,,,,,,,,,,,J,yes,083,cm,Vpit,2020_Feb_17_1706,transfer,3.2.4,60.00271696785502,
140,vend.png,2,4,0,0,37,37,37,,,,,,0.002135470344001078,2.004500332965108,242.04111160014327,None,4,4,0.0,0.0,,,,,,,,,,,J,yes,083,cm,Vpit,2020_Feb_17_1706,transfer,3.2.4,60.00271696785502,
142,CBred.png,4,126,127,0,38,38,38,,,,,,0.01324317030776001,4.0100016723718,244.47443237561674,None,126,4,0.0,13.0,,,,,,,,,,,J,yes,083,cm,Vpit,2020_Feb_17_1706,transfer,3.2.4,60.00271696785502,
146,vend.png,2,4,0,0,39,39,39,,,,,,0.0024771890675765462,2.005079624688733,248.92443759799608,None,4,4,0.0,0.0,,,,,,,,,,,J,yes,083,cm,Vpit,2020_Feb_17_1706,transfer,3.2.4,60.00271696785502,
148,CByellow.png,4,140,141,0,40,40,40,,,,,,0.008933922104915837,4.001302304550336,251.34109596319104,None,140,4,0.0,0.0,,,,,,,,,,,J,yes,083,cm,Vpit,2020_Feb_17_1706,transfer,3.2.4,60.00271696785502,
152,vend.png,2,4,0,0,41,41,41,,,,,,0.016631709930152283,2.0166996310563263,255.80774940787887,None,4,4,0.0,0.0,,,,,,,,,,,J,yes,083,cm,Vpit,2020_Feb_17_1706,transfer,3.2.4,60.00271696785502,
154,CBgreen.png,4,134,135,0,42,42,42,,,,,,0.012749308261845727,4.009105415398153,258.2412679092922,None,134,4,20.0,0.0,,,,,,,,,,,J,yes,083,cm,Vpit,2020_Feb_17_1706,transfer,3.2.4,60.00271696785502,
158,vend.png,2,4,0,0,43,43,43,,,,,,0.01022291411391052,2.0039364366966765,262.674390958824,None,4,4,0.0,0.0,,,,,,,,,,,J,yes,083,cm,Vpit,2020_Feb_17_1706,transfer,3.2.4,60.00271696785502,
160,CBblue.png,4,132,133,0,44,44,44,,,,,,0.007570699855932617,3.9985818672957976,265.10773286531185,None,132,4,15.0,0.0,,,,,,,,,,,J,yes,083,cm,Vpit,2020_Feb_17_1706,transfer,3.2.4,60.00271696785502,
164,vend.png,2,4,0,0,45,45,45,,,,,,0.01628304815676529,2.0160572481509007,269.5743663864705,None,4,4,0.0,0.0,,,,,,,,,,,J,yes,083,cm,Vpit,2020_Feb_17_1706,transfer,3.2.4,60.00271696785502,
166,CBblue.png,4,132,133,0,46,46,46,,,,,,0.012592606681209872,4.0085843547167315,272.0077783271845,None,132,4,13.0,0.0,,,,,,,,,,,J,yes,083,cm,Vpit,2020_Feb_17_1706,transfer,3.2.4,60.00271696785502,
170,vend.png,2,4,0,0,47,47,47,,,,,,0.015486982390939374,2.014500767661957,276.4577222696171,None,4,4,0.0,0.0,,,,,,,,,,,J,yes,083,cm,Vpit,2020_Feb_17_1706,transfer,3.2.4,60.00271696785502,
172,CBgreen.png,4,134,135,0,48,48,48,,,,,,0.011204298896700493,4.00590403620663,278.87438546476005,None,134,4,14.0,0.0,,,,,,,,,,,J,yes,083,cm,Vpit,2020_Feb_17_1706,transfer,3.2.4,60.00271696785502,
176,vend.png,2,4,0,0,49,49,49,,,,,,0.0005651339433825342,2.001199366311994,283.3243577831272,None,4,4,0.0,0.0,,,,,,,,,,,J,yes,083,cm,Vpit,2020_Feb_17_1706,transfer,3.2.4,60.00271696785502,
178,CByellow.png,4,140,141,0,50,50,50,,,,,,0.00782137408714334,3.9991166027630243,285.8409806482159,None,140,4,0.0,0.0,,,,,,,,,,,J,yes,083,cm,Vpit,2020_Feb_17_1706,transfer,3.2.4,60.00271696785502,
182,vend.png,2,4,0,0,51,51,51,,,,,,0.016190977297810605,2.0158217882526515,290.32431220050603,None,4,4,0.0,0.0,,,,,,,,,,,J,yes,083,cm,Vpit,2020_Feb_17_1706,transfer,3.2.4,60.00271696785502,
184,CBred.png,4,126,127,0,52,52,52,,,,,,0.010893672952079214,4.005204901430261,292.7409781124934,None,126,4,0.0,18.0,,,,,,,,,,,J,yes,083,cm,Vpit,2020_Feb_17_1706,transfer,3.2.4,60.00271696785502,
188,vend.png,2,4,0,0,53,53,53,,,,,,0.006179041291034082,1.9958076365073794,297.17430130293906,None,4,4,0.0,0.0,,,,,,,,,,,J,yes,083,cm,Vpit,2020_Feb_17_1706,transfer,3.2.4,60.00271696785502,
190,CBblue.png,4,132,133,0,54,54,54,,,,,,0.008551782766517135,4.000505695415995,299.6076407944547,None,132,4,19.0,0.0,,,,,,,,,,,J,yes,083,cm,Vpit,2020_Feb_17_1706,transfer,3.2.4,60.00271696785502,
194,vend.png,2,4,0,0,55,55,55,,,,,,0.0035020433697354747,1.9904578668665636,304.0574383291296,None,4,4,0.0,0.0,,,,,,,,,,,J,yes,083,cm,Vpit,2020_Feb_17_1706,transfer,3.2.4,60.00271696785502,
196,CByellow.png,4,140,141,0,56,56,56,,,,,,0.01611756210877502,4.0156400011346705,306.4743273242766,None,140,4,0.0,0.0,,,,,,,,,,,J,yes,083,cm,Vpit,2020_Feb_17_1706,transfer,3.2.4,60.00271696785502,
200,vend.png,2,4,0,0,57,57,57,,,,,,0.008852416754962178,2.0011966494676017,310.89100289615817,None,4,4,0.0,0.0,,,,,,,,,,,J,yes,083,cm,Vpit,2020_Feb_17_1706,transfer,3.2.4,60.00271696785502,
202,CBgreen.png,4,134,135,0,58,58,58,,,,,,0.013459944349961006,4.010388098289695,313.3576324929836,None,134,4,12.0,0.0,,,,,,,,,,,J,yes,083,cm,Vpit,2020_Feb_17_1706,transfer,3.2.4,60.00271696785502,
206,vend.png,2,4,0,0,59,59,59,,,,,,0.00279273552041559,2.005795151097118,317.8576216256042,None,4,4,0.0,0.0,,,,,,,,,,,J,yes,083,cm,Vpit,2020_Feb_17_1706,transfer,3.2.4,60.00271696785502,
208,CBred.png,4,126,127,0,60,60,60,,,,,,0.016161695746632176,4.015787374883075,320.32425665612027,None,126,4,0.0,17.0,,,,,,,,,,,J,yes,083,cm,Vpit,2020_Feb_17_1706,transfer,3.2.4,60.00271696785502,
212,vend.png,2,4,0,0,61,61,61,,,,,,0.0014514895283355145,2.003012467906956,324.82426269355346,None,4,4,0.0,0.0,,,,,,,,,,,J,yes,083,cm,Vpit,2020_Feb_17_1706,transfer,3.2.4,60.00271696785502,
,,,,,,,,,,,,,,,,,,,,,,327.1076468318879,None,328.0575509272603,None,q,36.50024451604804,328.0575509272603,None,,,J,yes,083,cm,Vpit,2020_Feb_17_1706,transfer,3.2.4,60.00271696785502,
,,,,,,,,,,,,,,,,,,,,,,,,,,,,,,364.57413002095564,None,,,,,,,,,,
