faces,pgo,outcome,blockcode,blockend,face,block_loop.thisRepN,block_loop.thisTrialN,block_loop.thisN,block_loop.thisIndex,Cavb_trials.thisRepN,Cavb_trials.thisTrialN,Cavb_trials.thisN,Cavb_trials.thisIndex,p_port_2.started,p_port_2.stopped,Intro1.started,Intro1.stopped,p_port_2_start,p_port_2_end,text.started,text.stopped,text_2.started,text_2.stopped,text_3.started,text_3.stopped,text_8.started,text_8.stopped,text_21.started,text_21.stopped,image.started,image.stopped,empty.started,empty.stopped,fill.started,fill.stopped,mid.started,mid.stopped,text_9.started,text_9.stopped,cor.started,cor.stopped,text_14.started,text_14.stopped,text_17.started,text_17.stopped,text_22.started,text_22.stopped,image_2.started,image_2.stopped,empty1.started,empty1.stopped,fill1.started,fill1.stopped,mid1.started,mid1.stopped,text_10.started,text_10.stopped,text_15.started,text_15.stopped,corr.started,corr.stopped,text_18.started,text_18.stopped,text_23.started,text_23.stopped,empty22.started,empty22.stopped,fill22.started,fill22.stopped,mid22.started,mid22.stopped,image_22.started,image_22.stopped,text_25.started,text_25.stopped,text_26.started,text_26.stopped,neut.started,neut.stopped,text_27.started,text_27.stopped,text_24.started,text_24.stopped,image_4.started,image_4.stopped,empty3.started,empty3.stopped,fill3.started,fill3.stopped,mid3.started,mid3.stopped,text_12.started,text_12.stopped,neutral.started,neutral.stopped,text_13.started,text_13.stopped,text_20.started,text_20.stopped,blockstart_parport.started,blockstart_parport.stopped,blockstart_parport_start,blockstart_parport_end,text_6.started,text_6.stopped,image_6.started,image_6.stopped,decision_partport.started,decision_partport.stopped,decision_partport_start,decision_partport_end,obtained,image_5.started,image_5.stopped,emptymeter.started,emptymeter.stopped,key_resp_10.keys,key_resp_10.rt,key_resp_10.started,key_resp_10.stopped,fillmeter.started,fillmeter.stopped,midpoint.started,midpoint.stopped,polygon.started,polygon.stopped,text_7.started,text_7.stopped,feedback_parport.started,feedback_parport.stopped,feedback_parport_start,feedback_parport_end,correctimg.started,correctimg.stopped,incorrectimg.started,incorrectimg.stopped,neutralimg.started,neutralimg.stopped,text_4.started,text_4.stopped,text_5.started,text_5.stopped,p_port.started,p_port.stopped,p_port_start,p_port_end,text_end.started,text_end.stopped,participant,sequence #,participant initials,date,expName,psychopyVersion,frameRate,
Faces\faces\M1.jpg,0.3,1,84,92,M1,0,0,0,1,0,0,0,0,0.0019574566226765455,1.020611314270809,94.1064556462984,None,157,4,112.28973763126123,None,128.80638736292758,None,145.62303141940674,None,161.8396726382921,None,169.22299803240048,None,174.22299108935204,None,174.22299108935204,None,174.22299108935204,None,174.22299108935204,None,178.60633489763222,None,179.10633248265913,None,179.10633248265913,None,181.10634848185737,None,184.1063511987022,None,190.58964230018955,None,190.58964230018955,None,190.58964230018955,None,190.58964230018955,None,192.33962464069737,None,192.83961950887897,None,192.83961950887897,None,194.83961558454757,None,197.83961558454757,None,203.2396079170071,None,203.2396079170071,None,203.2396079170071,None,203.2396079170071,None,204.38960553222114,None,204.8896040228624,None,204.8896040228624,None,206.88963964371897,None,209.8895985891727,None,215.00625719586606,None,215.00625719586606,None,215.00625719586606,None,215.00625719586606,None,216.75623289519672,None,217.25623078209537,None,217.25623078209537,None,219.25624285696176,None,0.003542977166489436,1.9904444637636516,84,4,222.289404968687,None,222.289404968687,None,0.010421877726003004,None,95,4,0,235.6227162653886,None,235.6227162653886,None,space,1.7783960109468353,235.6227162653886,None,235.6227162653886,None,235.6227162653886,None,235.6227162653886,None,237.68955548189888,None,0.011455788177954673,None,100,4,238.12290885951097,None,238.12290885951097,None,238.12290885951097,None,238.12290885951097,None,240.18954974633743,None,,,,,,,083,001,cm,2020_Feb_17_1458,Neighborhood,3.2.4,59.99750060673399,
Faces\faces\M1.jpg,0.3,1,84,92,M1,0,0,0,1,1,0,1,0,,,,,,,,,,,,,,,,,,,,,,,,,,,,,,,,,,,,,,,,,,,,,,,,,,,,,,,,,,,,,,,,,,,,,,,,,,,,,,,,,,,,,,,,,,,,,,,0.01208187001020633,None,95,4,0,243.1395869671137,None,243.1395869671137,None,space,1.4195047131224783,243.1395869671137,None,243.1395869671137,None,243.1395869671137,None,243.1395869671137,None,245.20622513709486,None,0.011553896468740277,None,100,4,245.62287082368084,None,245.62287082368084,None,245.62287082368084,None,245.62287082368084,None,247.68953284152394,None,,,,,,,083,001,cm,2020_Feb_17_1458,Neighborhood,3.2.4,59.99750060673399,
Faces\faces\M1.jpg,0.3,1,84,92,M1,0,0,0,1,2,0,2,0,,,,,,,,,,,,,,,,,,,,,,,,,,,,,,,,,,,,,,,,,,,,,,,,,,,,,,,,,,,,,,,,,,,,,,,,,,,,,,,,,,,,,,,,,,,,,,,0.01210300102684414,None,95,4,0,250.6395782128352,None,250.6395782128352,None,space,1.0944526251664684,250.6395782128352,None,250.6395782128352,None,250.6395782128352,None,250.6395782128352,None,252.70623298575856,None,0.0115810649181185,None,100,4,253.1228427496162,None,253.1228427496162,None,253.1228427496162,None,253.1228427496162,None,255.1895198610423,None,,,,,,,083,001,cm,2020_Feb_17_1458,Neighborhood,3.2.4,59.99750060673399,
Faces\faces\M1.jpg,0.3,1,84,92,M1,0,0,0,1,3,0,3,0,,,,,,,,,,,,,,,,,,,,,,,,,,,,,,,,,,,,,,,,,,,,,,,,,,,,,,,,,,,,,,,,,,,,,,,,,,,,,,,,,,,,,,,,,,,,,,,0.01209575610664615,None,95,4,0,258.1396011550819,None,258.1396011550819,None,space,0.9106577602447032,258.1396011550819,None,258.1396011550819,None,258.1396011550819,None,258.1396011550819,None,260.20618347880554,None,0.011510426948461827,None,100,4,260.62284546646106,None,260.62284546646106,None,260.62284546646106,None,260.62284546646106,None,262.689510201149,None,,,,,,,083,001,cm,2020_Feb_17_1458,Neighborhood,3.2.4,59.99750060673399,
Faces\faces\M1.jpg,0.3,1,84,92,M1,0,0,0,1,4,0,4,0,,,,,,,,,,,,,,,,,,,,,,,,,,,,,,,,,,,,,,,,,,,,,,,,,,,,,,,,,,,,,,,,,,,,,,,,,,,,,,,,,,,,,,,,,,,,,,,0.012043834180531121,None,95,4,0,265.6395139141705,None,265.6395139141705,None,space,0.8724048847661834,265.6395139141705,None,265.6395139141705,None,265.6395139141705,None,265.6395139141705,None,267.7061677814786,None,0.01158498925042295,None,100,4,268.1228330897229,None,268.1228330897229,None,268.1228330897229,None,268.1228330897229,None,270.18950386184406,None,,,,,,,083,001,cm,2020_Feb_17_1458,Neighborhood,3.2.4,59.99750060673399,
Faces\faces\M1.jpg,0.3,1,84,92,M1,0,0,0,1,5,0,5,0,,,,,,,,,,,,,,,,,,,,,,,,,,,,,,,,,,,,,,,,,,,,,,,,,,,,,,,,,,,,,,,,,,,,,,,,,,,,,,,,,,,,,,,,,,,,,,,0.012114170278437086,None,95,4,1,273.13950515989245,None,273.13950515989245,None,space,0.6774105810850415,273.13950515989245,None,273.13950515989245,None,273.13950515989245,None,273.13950515989245,None,275.2061563103557,None,0.011562952618533018,None,100,4,275.62284154212966,None,275.62284154212966,None,275.62284154212966,None,275.62284154212966,None,277.68952620034725,None,,,,,,,083,001,cm,2020_Feb_17_1458,Neighborhood,3.2.4,59.99750060673399,
Faces\faces\M1.jpg,0.3,1,84,92,M1,0,0,0,1,6,0,6,0,,,,,,,,,,,,,,,,,,,,,,,,,,,,,,,,,,,,,,,,,,,,,,,,,,,,,,,,,,,,,,,,,,,,,,,,,,,,,,,,,,,,,,,,,,,,,,,0.012428116809587664,None,95,4,0,280.6394882550794,None,280.6394882550794,None,space,1.3553292121810046,280.6394882550794,None,280.6394882550794,None,280.6394882550794,None,280.6394882550794,None,282.7061771395006,None,0.0116037052930551,None,100,4,283.1228487870494,None,283.1228487870494,None,283.1228487870494,None,283.1228487870494,None,285.1894766933942,None,,,,,,,083,001,cm,2020_Feb_17_1458,Neighborhood,3.2.4,59.99750060673399,
Faces\faces\M1.jpg,0.3,1,84,92,M1,0,0,0,1,7,0,7,0,,,,,,,,,,,,,,,,,,,,,,,,,,,,,,,,,,,,,,,,,,,,,,,,,,,,,,,,,,,,,,,,,,,,,,,,,,,,,,,,,,,,,,,,,,,,,,,0.012078247550107335,None,95,4,0,288.1395078767373,None,288.1395078767373,None,space,1.066252981737307,288.1395078767373,None,288.1395078767373,None,288.1395078767373,None,288.1395078767373,None,290.2061173689108,None,0.010535079600231256,None,100,4,290.6227829790264,None,290.6227829790264,None,290.6227829790264,None,290.6227829790264,None,292.68947065596103,None,,,,,,,083,001,cm,2020_Feb_17_1458,Neighborhood,3.2.4,59.99750060673399,
Faces\faces\M1.jpg,0.3,1,84,92,M1,0,0,0,1,8,0,8,0,,,,,,,,,,,,,,,,,,,,,,,,,,,,,,,,,,,,,,,,,,,,,,,,,,,,,,,,,,,,,,,,,,,,,,,,,,,,,,,,,,,,,,,,,,,,,,,0.01201062829750299,None,95,4,1,295.63946018101433,None,295.63946018101433,None,space,1.1112735180663549,295.63946018101433,None,295.63946018101433,None,295.63946018101433,None,295.63946018101433,None,297.70613668869737,None,0.011946933375838853,None,100,4,298.1227829790264,None,298.1227829790264,None,298.1227829790264,None,298.1227829790264,None,300.189437450078,None,,,,,,,083,001,cm,2020_Feb_17_1458,Neighborhood,3.2.4,59.99750060673399,
Faces\faces\M1.jpg,0.3,1,84,92,M1,0,0,0,1,9,0,9,0,,,,,,,,,,,,,,,,,,,,,,,,,,,,,,,,,,,,,,,,,,,,,,,,,,,,,,,,,,,,,,,,,,,,,,,,,,,,,,,,,,,,,,,,,,,,,,,0.012023005035644019,None,95,4,0,303.1394559548112,None,303.1394559548112,None,None,,303.1394559548112,None,303.1394559548112,None,303.1394559548112,None,303.1394559548112,None,305.2060929173058,None,0.011505295130518789,None,100,4,305.62277362100485,None,305.62277362100485,None,305.62277362100485,None,305.62277362100485,None,307.6894890701328,None,,,,,,,083,001,cm,2020_Feb_17_1458,Neighborhood,3.2.4,59.99750060673399,
Faces\faces\M1.jpg,0.3,1,84,92,M1,0,0,0,1,10,0,10,0,,,,,,,,,,,,,,,,,,,,,,,,,,,,,,,,,,,,,,,,,,,,,,,,,,,,,,,,,,,,,,,,,,,,,,,,,,,,,,,,,,,,,,,,,,,,,,,0.012968768960945454,None,95,4,0,310.63944086122774,None,310.63944086122774,None,space,0.8831901556027333,310.63944086122774,None,310.63944086122774,None,310.63944086122774,None,310.63944086122774,None,312.7060974453807,None,0.01146152373894438,None,100,4,313.122745848812,None,313.122745848812,None,313.122745848812,None,313.122745848812,None,315.1894120928582,None,,,,,,,083,001,cm,2020_Feb_17_1458,Neighborhood,3.2.4,59.99750060673399,
Faces\faces\M1.jpg,0.3,1,84,92,M1,0,0,0,1,11,0,11,0,,,,,,,,,,,,,,,,,,,,,,,,,,,,,,,,,,,,,,,,,,,,,,,,,,,,,,,,,,,,,,,,,,,,,,,,,,,,,,,,,,,,,,,,,,,,,,,0.012945222971211479,None,95,4,1,318.1394677278058,None,318.1394677278058,None,None,,318.1394677278058,None,318.1394677278058,None,318.1394677278058,None,318.1394677278058,None,320.20610136971254,None,0.01225937054869064,None,100,4,320.62274977314337,None,320.62274977314337,None,320.62274977314337,None,320.62274977314337,None,322.6894389594363,None,,,,,,,083,001,cm,2020_Feb_17_1458,Neighborhood,3.2.4,59.99750060673399,
Faces\faces\M1.jpg,0.3,1,84,92,M1,0,0,0,1,12,0,12,0,,,,,,,,,,,,,,,,,,,,,,,,,,,,,,,,,,,,,,,,,,,,,,,,,,,,,,,,,,,,,,,,,,,,,,,,,,,,,,,,,,,,,,,,,,,,,,,0.006555173385550006,None,95,4,0,325.65608274423084,None,325.65608274423084,None,space,1.4754270427506526,325.65608274423084,None,325.65608274423084,None,325.65608274423084,None,325.65608274423084,None,327.6894715615763,None,0.011514049408560822,None,100,4,328.1227648667268,None,328.1227648667268,None,328.1227648667268,None,328.1227648667268,None,330.1894434875112,None,,,,,,,083,001,cm,2020_Feb_17_1458,Neighborhood,3.2.4,59.99750060673399,
Faces\faces\M1.jpg,0.3,1,84,92,M1,0,0,0,1,13,0,13,0,,,,,,,,,,,,,,,,,,,,,,,,,,,,,,,,,,,,,,,,,,,,,,,,,,,,,,,,,,,,,,,,,,,,,,,,,,,,,,,,,,,,,,,,,,,,,,,0.012971485805792327,None,95,4,0,333.1394055422429,None,333.1394055422429,None,space,1.5040749656018306,333.1394055422429,None,333.1394055422429,None,333.1394055422429,None,333.1394055422429,None,335.20608144618245,None,0.01146695742954762,None,100,4,335.6227244159236,None,335.6227244159236,None,335.6227244159236,None,335.6227244159236,None,337.689429299543,None,,,,,,,083,001,cm,2020_Feb_17_1458,Neighborhood,3.2.4,59.99750060673399,
Faces\faces\M1.jpg,0.3,1,84,92,M1,0,0,0,1,14,0,14,0,,,,,,,,,,,,,,,,,,,,,,,,,,,,,,,,,,,,,,,,,,,,,,,,,,,,,,,,,,,,,,,,,,,,,,,,,,,,,,,,,,,,,,,,,,,,,,,0.010971586027153535,None,95,4,1,340.63939316550477,None,340.63939316550477,None,None,,340.63939316550477,None,340.63939316550477,None,340.63939316550477,None,340.63939316550477,None,342.7060328448447,None,0.01148869218877735,None,100,4,343.12271264292895,None,343.12271264292895,None,343.12271264292895,None,343.12271264292895,None,345.18944741184305,None,,,,,,,083,001,cm,2020_Feb_17_1458,Neighborhood,3.2.4,59.99750060673399,
Faces\faces\M1.jpg,0.3,1,84,92,M1,0,0,0,1,15,0,15,0,,,,,,,,,,,,,,,,,,,,,,,,,,,,,,,,,,,,,,,,,,,,,,,,,,,,,,,,,,,,,,,,,,,,,,,,,,,,,,,,,,,,,,,,,,,,,,,0.01290567778323748,None,95,4,1,348.13937414758993,None,348.13937414758993,None,None,,348.13937414758993,None,348.13937414758993,None,348.13937414758993,None,348.13937414758993,None,350.20607540874926,None,0.01034369296485238,None,100,4,350.6226999643186,None,350.6226999643186,None,350.6226999643186,None,350.6226999643186,None,352.6893559447285,None,,,,,,,083,001,cm,2020_Feb_17_1458,Neighborhood,3.2.4,59.99750060673399,
Faces\faces\M1.jpg,0.3,1,84,92,M1,0,0,0,1,16,0,16,0,,,,,,,,,,,,,,,,,,,,,,,,,,,,,,,,,,,,,,,,,,,,,,,,,,,,,,,,,,,,,,,,,,,,,,,,,,,,,,,,,,,,,,,,,,,,,,,0.0129120170877286,None,95,4,0,355.63936901577154,None,355.63936901577154,None,space,1.2879587015413563,355.63936901577154,None,355.63936901577154,None,355.63936901577154,None,355.63936901577154,None,357.7060482402994,None,0.011651401016479213,None,100,4,358.1226730977405,None,358.1226730977405,None,358.1226730977405,None,358.1226730977405,None,360.1893550391137,None,,,,,,,083,001,cm,2020_Feb_17_1458,Neighborhood,3.2.4,59.99750060673399,
Faces\faces\M1.jpg,0.3,1,84,92,M1,0,0,0,1,17,0,17,0,,,,,,,,,,,,,,,,,,,,,,,,,,,,,,,,,,,,,,,,,,,,,,,,,,,,,,,,,,,,,,,,,,,,,,,,,,,,,,,,,,,,,,,,,,,,,,,0.0134022566717249,None,95,4,1,363.13935482780334,None,363.13935482780334,None,None,,363.13935482780334,None,363.13935482780334,None,363.13935482780334,None,363.13935482780334,None,365.206052466503,None,0.01125051544568123,None,100,4,365.6226613247459,None,365.6226613247459,None,365.6226613247459,None,365.6226613247459,None,367.6893284744069,None,,,,,,,083,001,cm,2020_Feb_17_1458,Neighborhood,3.2.4,59.99750060673399,
Faces\faces\M1.jpg,0.3,1,84,92,M1,0,0,0,1,18,0,18,0,,,,,,,,,,,,,,,,,,,,,,,,,,,,,,,,,,,,,,,,,,,,,,,,,,,,,,,,,,,,,,,,,,,,,,,,,,,,,,,,,,,,,,,,,,,,,,,0.012868245696608938,None,95,4,0,370.639344564167,None,370.639344564167,None,space,1.4588506658983533,370.639344564167,None,370.639344564167,None,370.639344564167,None,370.639344564167,None,372.706067560086,None,0.011396319459890947,None,100,4,373.12269121004056,None,373.12269121004056,None,373.12269121004056,None,373.12269121004056,None,375.1893145883105,None,,,,,,,083,001,cm,2020_Feb_17_1458,Neighborhood,3.2.4,59.99750060673399,
Faces\faces\M1.jpg,0.3,1,84,92,M1,0,0,0,1,19,0,19,0,,,,,,,,,,,,,,,,,,,,,,,,,,,,,,,,,,,,,,,,,,,,,,,,,,,,,,,,,,,,,,,,,,,,,,,,,,,,,,,,,,,,,,,,,,,,,,,0.012822361204143817,None,95,4,1,378.13942969197615,None,378.13942969197615,None,None,,378.13942969197615,None,378.13942969197615,None,378.13942969197615,None,378.13942969197615,None,380.20598635660826,None,0.011404168123135605,None,100,4,380.62269181378406,None,380.62269181378406,None,380.62269181378406,None,380.62269181378406,None,382.6893650008783,None,,,,,,,083,001,cm,2020_Feb_17_1458,Neighborhood,3.2.4,59.99750060673399,
Faces\faces\M1.jpg,0.3,1,84,92,M1,0,0,0,1,20,0,20,0,,,,,,,,,,,,,,,,,,,,,,,,,,,,,,,,,,,,,,,,,,,,,,,,,,,,,,,,,,,,,,,,,,,,,,,,,,,,,,,,,,,,,,,,,,,,,,,0.012896017889943323,None,95,4,1,385.639367808285,None,385.639367808285,None,None,,385.639367808285,None,385.639367808285,None,385.639367808285,None,385.639367808285,None,387.7059742817419,None,0.01141775234736997,None,100,4,388.1226782295589,None,388.1226782295589,None,388.1226782295589,None,388.1226782295589,None,390.1893885468685,None,,,,,,,083,001,cm,2020_Feb_17_1458,Neighborhood,3.2.4,59.99750060673399,
Faces\faces\M1.jpg,0.3,1,84,92,M1,0,0,0,1,21,0,21,0,,,,,,,,,,,,,,,,,,,,,,,,,,,,,,,,,,,,,,,,,,,,,,,,,,,,,,,,,,,,,,,,,,,,,,,,,,,,,,,,,,,,,,,,,,,,,,,0.012854963343215786,None,95,4,0,393.13932735748176,None,393.13932735748176,None,space,0.4887441112387023,393.13932735748176,None,393.13932735748176,None,393.13932735748176,None,393.13932735748176,None,395.2059625087468,None,0.011345605020324001,None,100,4,395.62266675843557,None,395.62266675843557,None,395.62266675843557,None,395.62266675843557,None,397.6892886273472,None,,,,,,,083,001,cm,2020_Feb_17_1458,Neighborhood,3.2.4,59.99750060673399,
Faces\faces\M1.jpg,0.3,1,84,92,M1,0,0,0,1,22,0,22,0,,,,,,,,,,,,,,,,,,,,,,,,,,,,,,,,,,,,,,,,,,,,,,,,,,,,,,,,,,,,,,,,,,,,,,,,,,,,,,,,,,,,,,,,,,,,,,,0.012837152915381012,None,95,4,1,400.63930079277543,None,400.63930079277543,None,space,0.31274055398262135,400.63930079277543,None,400.63930079277543,None,400.63930079277543,None,400.63930079277543,None,402.7059507357517,None,0.011388470796191541,None,100,4,403.1226848707356,None,403.1226848707356,None,403.1226848707356,None,403.1226848707356,None,405.18931790889883,None,,,,,,,083,001,cm,2020_Feb_17_1458,Neighborhood,3.2.4,59.99750060673399,
Faces\faces\M1.jpg,0.3,1,84,92,M1,0,0,0,1,23,0,23,0,,,,,,,,,,,,,,,,,,,,,,,,,,,,,,,,,,,,,,,,,,,,,,,,,,,,,,,,,,,,,,,,,,,,,,,,,,,,,,,,,,,,,,,,,,,,,,,0.012029948083636555,None,95,4,1,408.13928207673234,None,408.13928207673234,None,space,0.36771198786709647,408.13928207673234,None,408.13928207673234,None,408.13928207673234,None,408.13928207673234,None,410.2059238691736,None,0.011340473201926216,None,100,4,410.62261061030586,None,410.62261061030586,None,410.62261061030586,None,410.62261061030586,None,412.68926719445926,None,,,,,,,083,001,cm,2020_Feb_17_1458,Neighborhood,3.2.4,59.99750060673399,
Faces\faces\M1.jpg,0.3,1,84,92,M1,0,0,0,1,24,0,24,0,,,,,,,,,,,,,,,,,,,,,,,,,,,,,,,,,,,,,,,,,,,,,,,,,,,,,,,,,,,,,,,,,,,,,,,,,,,,,,,,,,,,,,,,,,,,,,,0.012770439277574042,None,95,4,0,415.6393092451822,None,415.6393092451822,None,space,0.4006392434371264,415.6393092451822,None,415.6393092451822,None,415.6393092451822,None,415.6393092451822,None,417.7059682443082,None,0.011373075341452932,None,100,4,418.12258827180267,None,418.12258827180267,None,418.12258827180267,None,418.12258827180267,None,420.1892611570256,None,,,,,,,083,001,cm,2020_Feb_17_1458,Neighborhood,3.2.4,59.99750060673399,
Faces\faces\M1.jpg,0.3,1,84,92,M1,0,0,0,1,25,0,25,0,,,,,,,,,,,,,,,,,,,,,,,,,,,,,,,,,,,,,,,,,,,,,,,,,,,,,,,,,,,,,,,,,,,,,,,,,,,,,,,,,,,,,,,,,,,,,,,0.01293284623307045,None,95,4,1,423.1392968684436,None,423.1392968684436,None,space,0.4305900443932842,423.1392968684436,None,423.1392968684436,None,423.1392968684436,None,423.1392968684436,None,425.2059507357517,None,0.011496842724227463,None,100,4,425.62257800816633,None,425.62257800816633,None,425.62257800816633,None,425.62257800816633,None,427.689243044726,None,,,,,,,083,001,cm,2020_Feb_17_1458,Neighborhood,3.2.4,59.99750060673399,
Faces\faces\M1.jpg,0.3,1,84,92,M1,0,0,0,1,26,0,26,0,,,,,,,,,,,,,,,,,,,,,,,,,,,,,,,,,,,,,,,,,,,,,,,,,,,,,,,,,,,,,,,,,,,,,,,,,,,,,,,,,,,,,,,,,,,,,,,0.013260980731956806,None,95,4,1,430.6393164901019,None,430.6393164901019,None,space,0.5365276789148083,430.6393164901019,None,430.6393164901019,None,430.6393164901019,None,430.6393164901019,None,432.70590183254217,None,0.011265307157373172,None,100,4,433.12256472581294,None,433.12256472581294,None,433.12256472581294,None,433.12256472581294,None,435.18922764927083,None,,,,,,,083,001,cm,2020_Feb_17_1458,Neighborhood,3.2.4,59.99750060673399,
Faces\faces\M1.jpg,0.3,1,84,92,M1,0,0,0,1,27,0,27,0,,,,,,,,,,,,,,,,,,,,,,,,,,,,,,,,,,,,,,,,,,,,,,,,,,,,,,,,,,,,,,,,,,,,,,,,,,,,,,,,,,,,,,,,,,,,,,,0.012749308260936232,None,95,4,0,438.1392328716511,None,438.1392328716511,None,space,1.124563719976777,438.1392328716511,None,438.1392328716511,None,438.1392328716511,None,438.1392328716511,None,440.20592930286375,None,0.011294286836800893,None,100,4,440.6225523490748,None,440.6225523490748,None,440.6225523490748,None,440.6225523490748,None,442.68920500889635,None,,,,,,,083,001,cm,2020_Feb_17_1458,Neighborhood,3.2.4,59.99750060673399,
Faces\faces\M1.jpg,0.3,1,84,92,M1,0,0,0,1,28,0,28,0,,,,,,,,,,,,,,,,,,,,,,,,,,,,,,,,,,,,,,,,,,,,,,,,,,,,,,,,,,,,,,,,,,,,,,,,,,,,,,,,,,,,,,,,,,,,,,,0.011758263585761597,None,95,4,0,445.6392165705811,None,445.6392165705811,None,space,0.5915247718908176,445.6392165705811,None,445.6392165705811,None,445.6392165705811,None,445.6392165705811,None,447.70587526783584,None,0.011254137905325479,None,100,4,448.12253936859315,None,448.12253936859315,None,448.12253936859315,None,448.12253936859315,None,450.18920591451115,None,,,,,,,083,001,cm,2020_Feb_17_1458,Neighborhood,3.2.4,59.99750060673399,
Faces\faces\M1.jpg,0.3,1,84,92,M1,0,0,0,1,29,0,29,0,,,,,,,,,,,,,,,,,,,,,,,,,,,,,,,,,,,,,,,,,,,,,,,,,,,,,,,,,,,,,,,,,,,,,,,,,,,,,,,,,,,,,,,,,,,,,,,0.01273753526584187,None,95,4,0,453.13920962753264,None,453.13920962753264,None,space,0.3574761234608559,453.13920962753264,None,453.13920962753264,None,453.13920962753264,None,453.13920962753264,None,455.20586560794254,None,0.011267722130469338,None,100,4,455.62251461511687,None,455.62251461511687,None,455.62251461511687,None,455.62251461511687,None,457.6891808591631,None,,,,,,,083,001,cm,2020_Feb_17_1458,Neighborhood,3.2.4,59.99750060673399,
Faces\faces\M1.jpg,0.3,1,84,92,M1,0,0,0,1,30,0,30,0,,,,,,,,,,,,,,,,,,,,,,,,,,,,,,,,,,,,,,,,,,,,,,,,,,,,,,,,,,,,,,,,,,,,,,,,,,,,,,,,,,,,,,,,,,,,,,,0.01272696975775034,None,95,4,1,460.639196647051,None,460.639196647051,None,space,0.5234653901115962,460.639196647051,None,460.639196647051,None,460.639196647051,None,460.639196647051,None,462.7058511181026,None,0.011239044322337577,None,100,4,463.1225224637801,None,463.1225224637801,None,463.1225224637801,None,463.1225224637801,None,465.1891681805532,None,,,,,,,083,001,cm,2020_Feb_17_1458,Neighborhood,3.2.4,59.99750060673399,
Faces\faces\M1.jpg,0.3,1,84,92,M1,0,0,0,1,31,0,31,0,,,,,,,,,,,,,,,,,,,,,,,,,,,,,,,,,,,,,,,,,,,,,,,,,,,,,,,,,,,,,,,,,,,,,,,,,,,,,,,,,,,,,,,,,,,,,,,0.012715196762655978,None,95,4,0,468.13919030774605,None,468.13919030774605,None,space,0.4154270306758008,468.13919030774605,None,468.13919030774605,None,468.13919030774605,None,468.13919030774605,None,470.20584115633756,None,0.012002175890756916,None,100,4,470.62257287634793,None,470.62257287634793,None,470.62257287634793,None,470.62257287634793,None,472.6891567094299,None,,,,,,,083,001,cm,2020_Feb_17_1458,Neighborhood,3.2.4,59.99750060673399,
Faces\faces\M1.jpg,0.3,1,84,92,M1,0,0,0,1,32,0,32,0,,,,,,,,,,,,,,,,,,,,,,,,,,,,,,,,,,,,,,,,,,,,,,,,,,,,,,,,,,,,,,,,,,,,,,,,,,,,,,,,,,,,,,,,,,,,,,,0.012714291147858603,None,95,4,0,475.63917159170296,None,475.63917159170296,None,space,1.0783643747963652,475.63917159170296,None,475.63917159170296,None,475.63917159170296,None,475.63917159170296,None,477.7058281758559,None,0.0112435723967792,None,100,4,478.1224922766137,None,478.1224922766137,None,478.1224922766137,None,478.1224922766137,None,480.18914403082,None,,,,,,,083,001,cm,2020_Feb_17_1458,Neighborhood,3.2.4,59.99750060673399,
Faces\faces\M1.jpg,0.3,1,84,92,M1,0,0,0,1,33,0,33,0,,,,,,,,,,,,,,,,,,,,,,,,,,,,,,,,,,,,,,,,,,,,,,,,,,,,,,,,,,,,,,,,,,,,,,,,,,,,,,,,,,,,,,,,,,,,,,,0.01165200475952588,None,95,4,0,483.1391607243231,None,483.1391607243231,None,space,0.8863486388304409,483.1391607243231,None,483.1391607243231,None,483.1391607243231,None,483.1391607243231,None,485.20581519537427,None,0.010230792962374835,None,100,4,485.6224708437253,None,485.6224708437253,None,485.6224708437253,None,485.6224708437253,None,487.68913708777154,None,,,,,,,083,001,cm,2020_Feb_17_1458,Neighborhood,3.2.4,59.99750060673399,
Faces\faces\M1.jpg,0.3,1,84,92,M1,0,0,0,1,34,0,34,0,,,,,,,,,,,,,,,,,,,,,,,,,,,,,,,,,,,,,,,,,,,,,,,,,,,,,,,,,,,,,,,,,,,,,,,,,,,,,,,,,,,,,,,,,,,,,,,0.011676456364511978,None,95,4,0,490.63914140453653,None,490.63914140453653,None,space,0.9133395881144679,490.63914140453653,None,490.63914140453653,None,490.63914140453653,None,490.63914140453653,None,492.7058179122196,None,0.011625138181443617,None,100,4,493.1225040496083,None,493.1225040496083,None,493.1225040496083,None,493.1225040496083,None,495.18917240675637,None,,,,,,,083,001,cm,2020_Feb_17_1458,Neighborhood,3.2.4,59.99750060673399,
Faces\faces\M1.jpg,0.3,1,84,92,M1,0,0,0,1,35,0,35,0,,,,,,,,,,,,,,,,,,,,,,,,,,,,,,,,,,,,,,,,,,,,,,,,,,,,,,,,,,,,,,,,,,,,,,,,,,,,,,,,,,,,,,,,,,,,,,,0.012653614942792046,None,95,4,0,498.13911544357325,None,498.13911544357325,None,space,0.6903020105255564,498.13911544357325,None,498.13911544357325,None,498.13911544357325,None,498.13911544357325,None,500.2058058373527,None,0.011253232290528103,None,100,4,500.6224521276822,None,500.6224521276822,None,500.6224521276822,None,500.6224521276822,None,502.68916214312003,None,,,,,,,083,001,cm,2020_Feb_17_1458,Neighborhood,3.2.4,59.99750060673399,
Faces\faces\M1.jpg,0.3,1,84,92,M1,0,0,0,1,36,0,36,0,,,,,,,,,,,,,,,,,,,,,,,,,,,,,,,,,,,,,,,,,,,,,,,,,,,,,,,,,,,,,,,,,,,,,,,,,,,,,,,,,,,,,,,,,,,,,,,0.012704027511063032,None,95,4,0,505.6391501588146,None,505.6391501588146,None,space,0.898214610226205,505.6391501588146,None,505.6391501588146,None,505.6391501588146,None,505.6391501588146,None,507.70577836703114,None,0.01119768790431408,None,100,4,508.1224409584306,None,508.1224409584306,None,508.1224409584306,None,508.1224409584306,None,510.18914523830654,None,,,,,,,083,001,cm,2020_Feb_17_1458,Neighborhood,3.2.4,59.99750060673399,
Faces\faces\M1.jpg,0.3,1,84,92,M1,0,0,0,1,37,0,37,0,,,,,,,,,,,,,,,,,,,,,,,,,,,,,,,,,,,,,,,,,,,,,,,,,,,,,,,,,,,,,,,,,,,,,,,,,,,,,,,,,,,,,,,,,,,,,,,0.012681085264830472,None,95,4,1,513.1391051799369,None,513.1391051799369,None,space,0.6182316599379192,513.1391051799369,None,513.1391051799369,None,513.1391051799369,None,513.1391051799369,None,515.2057777632881,None,0.011192556085916294,None,100,4,515.6224186199274,None,515.6224186199274,None,515.6224186199274,None,515.6224186199274,None,517.6891364840285,None,,,,,,,083,001,cm,2020_Feb_17_1458,Neighborhood,3.2.4,59.99750060673399,
Faces\faces\M1.jpg,0.3,1,84,92,M1,0,0,0,1,38,0,38,0,,,,,,,,,,,,,,,,,,,,,,,,,,,,,,,,,,,,,,,,,,,,,,,,,,,,,,,,,,,,,,,,,,,,,,,,,,,,,,,,,,,,,,,,,,,,,,,0.012666897296185198,None,95,4,0,520.639117556675,None,520.639117556675,None,space,1.4621449913756805,520.639117556675,None,520.639117556675,None,520.639117556675,None,520.639117556675,None,522.7057548210414,None,0.011262288440320845,None,100,4,523.1224349209974,None,523.1224349209974,None,523.1224349209974,None,523.1224349209974,None,525.1891542944563,None,,,,,,,083,001,cm,2020_Feb_17_1458,Neighborhood,3.2.4,59.99750060673399,
Faces\faces\M1.jpg,0.3,1,84,92,M1,0,0,0,1,39,0,39,0,,,,,,,,,,,,,,,,,,,,,,,,,,,,,,,,,,,,,,,,,,,,,,,,,,,,,,,,,,,,,,,,,,,,,,,,,,,,,,,,,,,,,,,,,,,,,,,0.012627352108211198,None,95,4,0,528.1391254053383,None,528.1391254053383,None,space,0.8311046148328387,528.1391254053383,None,528.1391254053383,None,528.1391254053383,None,528.1391254053383,None,530.2057838007213,None,0.011175953144629602,None,100,4,530.6224928803567,None,530.6224928803567,None,530.6224928803567,None,530.6224928803567,None,532.6890709778772,None,,,,,,,083,001,cm,2020_Feb_17_1458,Neighborhood,3.2.4,59.99750060673399,
Faces\faces\F2.jpg,0.3,-1,86,94,F2,0,1,1,3,0,0,0,0,,,,,,,,,,,,,,,,,,,,,,,,,,,,,,,,,,,,,,,,,,,,,,,,,,,,,,,,,,,,,,,,,,,,,,,,,,,,,,,,,,,,,,,0.016283319839203614,2.0159425067299708,86,4,537.6890664498019,None,537.6890664498019,None,0.010832423189640394,None,95,4,0,546.2223876478947,None,546.2223876478947,None,space,1.8006804791066315,546.2223876478947,None,546.2223876478947,None,546.2223876478947,None,546.2223876478947,None,548.289045741406,None,0.011146671592996427,None,100,4,548.7223625925462,None,548.7223625925462,None,548.7223625925462,None,548.7223625925462,None,550.7890412133311,None,0.007198492090083164,None,92,4,535.6223996020126,None,083,001,cm,2020_Feb_17_1458,Neighborhood,3.2.4,59.99750060673399,
Faces\faces\F2.jpg,0.3,-1,86,94,F2,0,1,1,3,1,0,1,0,,,,,,,,,,,,,,,,,,,,,,,,,,,,,,,,,,,,,,,,,,,,,,,,,,,,,,,,,,,,,,,,,,,,,,,,,,,,,,,,,,,,,,,,,,,,,,,0.01159102668361811,None,95,4,-1,553.739025606566,None,553.739025606566,None,None,,553.739025606566,None,553.739025606566,None,553.739025606566,None,553.739025606566,None,555.8057108685271,None,0.010098271301103523,None,100,4,556.2223713468247,None,556.2223713468247,None,556.2223713468247,None,556.2223713468247,None,558.2890378927427,None,,,,,,,083,001,cm,2020_Feb_17_1458,Neighborhood,3.2.4,59.99750060673399,
Faces\faces\F2.jpg,0.3,-1,86,94,F2,0,1,1,3,2,0,2,0,,,,,,,,,,,,,,,,,,,,,,,,,,,,,,,,,,,,,,,,,,,,,,,,,,,,,,,,,,,,,,,,,,,,,,,,,,,,,,,,,,,,,,,,,,,,,,,0.013071707198378135,None,95,4,0,561.2390479450692,None,561.2390479450692,None,None,,561.2390479450692,None,561.2390479450692,None,561.2390479450692,None,561.2390479450692,None,563.3223986360231,None,0.011128861164706905,None,100,4,563.722397307788,None,563.722397307788,None,563.722397307788,None,563.722397307788,None,565.7890197804427,None,,,,,,,083,001,cm,2020_Feb_17_1458,Neighborhood,3.2.4,59.99750060673399,
Faces\faces\F2.jpg,0.3,-1,86,94,F2,0,1,1,3,3,0,3,0,,,,,,,,,,,,,,,,,,,,,,,,,,,,,,,,,,,,,,,,,,,,,,,,,,,,,,,,,,,,,,,,,,,,,,,,,,,,,,,,,,,,,,,,,,,,,,,0.012554601037209068,None,95,4,0,568.7390204747476,None,568.7390204747476,None,space,0.848905081285011,568.7390204747476,None,568.7390204747476,None,568.7390204747476,None,568.7390204747476,None,570.8056616634458,None,0.01112493683331195,None,100,4,571.2223665168781,None,571.2223665168781,None,571.2223665168781,None,571.2223665168781,None,573.2890442320477,None,,,,,,,083,001,cm,2020_Feb_17_1458,Neighborhood,3.2.4,59.99750060673399,
Faces\faces\F2.jpg,0.3,-1,86,94,F2,0,1,1,3,4,0,4,0,,,,,,,,,,,,,,,,,,,,,,,,,,,,,,,,,,,,,,,,,,,,,,,,,,,,,,,,,,,,,,,,,,,,,,,,,,,,,,,,,,,,,,,,,,,,,,,0.01261799408666775,None,95,4,0,576.2390382851759,None,576.2390382851759,None,space,1.2068503133127706,576.2390382851759,None,576.2390382851759,None,576.2390382851759,None,576.2390382851759,None,578.3056996992755,None,0.011121314373667701,None,100,4,578.7223988171463,None,578.7223988171463,None,578.7223988171463,None,578.7223988171463,None,580.7890246103893,None,,,,,,,083,001,cm,2020_Feb_17_1458,Neighborhood,3.2.4,59.99750060673399,
Faces\faces\F2.jpg,0.3,-1,86,94,F2,0,1,1,3,5,0,5,0,,,,,,,,,,,,,,,,,,,,,,,,,,,,,,,,,,,,,,,,,,,,,,,,,,,,,,,,,,,,,,,,,,,,,,,,,,,,,,,,,,,,,,,,,,,,,,,0.01248184996575219,None,95,4,0,583.7389954193995,None,583.7389954193995,None,space,1.041846053903555,583.7389954193995,None,583.7389954193995,None,583.7389954193995,None,583.7389954193995,None,585.8056752476705,None,0.011104409559720807,None,100,4,586.2223638000332,None,586.2223638000332,None,586.2223638000332,None,586.2223638000332,None,588.2890052906027,None,,,,,,,083,001,cm,2020_Feb_17_1458,Neighborhood,3.2.4,59.99750060673399,
Faces\faces\F2.jpg,0.3,-1,86,94,F2,0,1,1,3,6,0,6,0,,,,,,,,,,,,,,,,,,,,,,,,,,,,,,,,,,,,,,,,,,,,,,,,,,,,,,,,,,,,,,,,,,,,,,,,,,,,,,,,,,,,,,,,,,,,,,,0.01336723955864727,None,95,4,0,591.2390204747476,None,591.2390204747476,None,space,1.122772715390056,591.2390204747476,None,591.2390204747476,None,591.2390204747476,None,591.2390204747476,None,593.3056960768154,None,0.0110929384368319,None,100,4,593.7223106706201,None,593.7223106706201,None,593.7223106706201,None,593.7223106706201,None,595.7889705753614,None,,,,,,,083,001,cm,2020_Feb_17_1458,Neighborhood,3.2.4,59.99750060673399,
Faces\faces\F2.jpg,0.3,-1,86,94,F2,0,1,1,3,7,0,7,0,,,,,,,,,,,,,,,,,,,,,,,,,,,,,,,,,,,,,,,,,,,,,,,,,,,,,,,,,,,,,,,,,,,,,,,,,,,,,,,,,,,,,,,,,,,,,,,0.01250750905728637,None,95,4,0,598.7390349645875,None,598.7390349645875,None,space,1.5977025755087197,598.7390349645875,None,598.7390349645875,None,598.7390349645875,None,598.7390349645875,None,600.8056529091673,None,0.011054600734951237,None,100,4,601.2222928601918,None,601.2222928601918,None,601.2222928601918,None,601.2222928601918,None,603.2889609154681,None,,,,,,,083,001,cm,2020_Feb_17_1458,Neighborhood,3.2.4,59.99750060673399,
Faces\faces\F2.jpg,0.3,-1,86,94,F2,0,1,1,3,8,0,8,0,,,,,,,,,,,,,,,,,,,,,,,,,,,,,,,,,,,,,,,,,,,,,,,,,,,,,,,,,,,,,,,,,,,,,,,,,,,,,,,,,,,,,,,,,,,,,,,0.012462832050914585,None,95,4,0,606.2390243990794,None,606.2390243990794,None,space,0.9886562665838028,606.2390243990794,None,606.2390243990794,None,606.2390243990794,None,606.2390243990794,None,608.3056601540875,None,0.011041318382012832,None,100,4,608.7222789740954,None,608.7222789740954,None,608.7222789740954,None,608.7222789740954,None,610.7889527649331,None,,,,,,,083,001,cm,2020_Feb_17_1458,Neighborhood,3.2.4,59.99750060673399,
Faces\faces\F2.jpg,0.3,-1,86,94,F2,0,1,1,3,9,0,9,0,,,,,,,,,,,,,,,,,,,,,,,,,,,,,,,,,,,,,,,,,,,,,,,,,,,,,,,,,,,,,,,,,,,,,,,,,,,,,,,,,,,,,,,,,,,,,,,0.011439487107963942,None,95,4,-1,613.7389441012165,None,613.7389441012165,None,space,1.398711792857739,613.7389441012165,None,613.7389441012165,None,613.7389441012165,None,613.7389441012165,None,615.8056163826959,None,0.009990804988774471,None,100,4,616.2222665973568,None,616.2222665973568,None,616.2222665973568,None,616.2222665973568,None,618.2889400863232,None,,,,,,,083,001,cm,2020_Feb_17_1458,Neighborhood,3.2.4,59.99750060673399,
Faces\faces\F2.jpg,0.3,-1,86,94,F2,0,1,1,3,10,0,10,0,,,,,,,,,,,,,,,,,,,,,,,,,,,,,,,,,,,,,,,,,,,,,,,,,,,,,,,,,,,,,,,,,,,,,,,,,,,,,,,,,,,,,,,,,,,,,,,0.012761081255575846,None,95,4,0,621.2389311207348,None,621.2389311207348,None,None,,621.2389311207348,None,621.2389311207348,None,621.2389311207348,None,621.2389311207348,None,623.3055934404497,None,0.01135405742616058,None,100,4,623.7222388251639,None,623.7222388251639,None,623.7222388251639,None,623.7222388251639,None,625.7889047673384,None,,,,,,,083,001,cm,2020_Feb_17_1458,Neighborhood,3.2.4,59.99750060673399,
Faces\faces\F2.jpg,0.3,-1,86,94,F2,0,1,1,3,11,0,11,0,,,,,,,,,,,,,,,,,,,,,,,,,,,,,,,,,,,,,,,,,,,,,,,,,,,,,,,,,,,,,,,,,,,,,,,,,,,,,,,,,,,,,,,,,,,,,,,0.012346007716587337,None,95,4,0,628.7389226683281,None,628.7389226683281,None,space,1.49061963989152,628.7389226683281,None,628.7389226683281,None,628.7389226683281,None,628.7389226683281,None,630.8055922329627,None,0.010931135224836908,None,100,4,631.2222533150039,None,631.2222533150039,None,631.2222533150039,None,631.2222533150039,None,633.2889074841833,None,,,,,,,083,001,cm,2020_Feb_17_1458,Neighborhood,3.2.4,59.99750060673399,
Faces\faces\F2.jpg,0.3,-1,86,94,F2,0,1,1,3,12,0,12,0,,,,,,,,,,,,,,,,,,,,,,,,,,,,,,,,,,,,,,,,,,,,,,,,,,,,,,,,,,,,,,,,,,,,,,,,,,,,,,,,,,,,,,,,,,,,,,,0.012456794617719424,None,95,4,0,636.2389075747451,None,636.2389075747451,None,space,1.5816052689888238,636.2389075747451,None,636.2389075747451,None,636.2389075747451,None,636.2389075747451,None,638.3055532915182,None,0.010998150733939838,None,100,4,638.7222545224904,None,638.7222545224904,None,638.7222545224904,None,638.7222545224904,None,640.7888981261617,None,,,,,,,083,001,cm,2020_Feb_17_1458,Neighborhood,3.2.4,59.99750060673399,
Faces\faces\F2.jpg,0.3,-1,86,94,F2,0,1,1,3,13,0,13,0,,,,,,,,,,,,,,,,,,,,,,,,,,,,,,,,,,,,,,,,,,,,,,,,,,,,,,,,,,,,,,,,,,,,,,,,,,,,,,,,,,,,,,,,,,,,,,,0.012406683921199146,None,95,4,0,643.7388954998783,None,643.7388954998783,None,None,,643.7388954998783,None,643.7388954998783,None,643.7388954998783,None,643.7388954998783,None,645.8055499709299,None,0.010970680411901412,None,100,4,646.2222533150039,None,646.2222533150039,None,646.2222533150039,None,646.2222533150039,None,648.2888851456801,None,,,,,,,083,001,cm,2020_Feb_17_1458,Neighborhood,3.2.4,59.99750060673399,
Faces\faces\F2.jpg,0.3,-1,86,94,F2,0,1,1,3,14,0,14,0,,,,,,,,,,,,,,,,,,,,,,,,,,,,,,,,,,,,,,,,,,,,,,,,,,,,,,,,,,,,,,,,,,,,,,,,,,,,,,,,,,,,,,,,,,,,,,,0.012428418681338371,None,95,4,0,651.2388822175253,None,651.2388822175253,None,None,,651.2388822175253,None,651.2388822175253,None,651.2388822175253,None,651.2388822175253,None,653.305546046598,None,0.010944115706024604,None,100,4,653.722191733184,None,653.722191733184,None,653.722191733184,None,653.722191733184,None,655.7888839381935,None,,,,,,,083,001,cm,2020_Feb_17_1458,Neighborhood,3.2.4,59.99750060673399,
Faces\faces\F2.jpg,0.3,-1,86,94,F2,0,1,1,3,15,0,15,0,,,,,,,,,,,,,,,,,,,,,,,,,,,,,,,,,,,,,,,,,,,,,,,,,,,,,,,,,,,,,,,,,,,,,,,,,,,,,,,,,,,,,,,,,,,,,,,0.012358988198229781,None,95,4,0,658.7388710482737,None,658.7388710482737,None,space,1.292475607259803,658.7388710482737,None,658.7388710482737,None,658.7388710482737,None,658.7388710482737,None,660.8055276324267,None,0.01095226624101997,None,100,4,661.2221790545741,None,661.2221790545741,None,661.2221790545741,None,661.2221790545741,None,663.2888443930055,None,,,,,,,083,001,cm,2020_Feb_17_1458,Neighborhood,3.2.4,59.99750060673399,
Faces\faces\F2.jpg,0.3,-1,86,94,F2,0,1,1,3,16,0,16,0,,,,,,,,,,,,,,,,,,,,,,,,,,,,,,,,,,,,,,,,,,,,,,,,,,,,,,,,,,,,,,,,,,,,,,,,,,,,,,,,,,,,,,,,,,,,,,,0.012429324296135746,None,95,4,0,666.2388595771504,None,666.2388595771504,None,space,0.803459509651475,666.2388595771504,None,666.2388595771504,None,666.2388595771504,None,666.2388595771504,None,668.3055197837634,None,0.010977623460803443,None,100,4,668.7221805639324,None,668.7221805639324,None,668.7221805639324,None,668.7221805639324,None,670.7888854475518,None,,,,,,,083,001,cm,2020_Feb_17_1458,Neighborhood,3.2.4,59.99750060673399,
Faces\faces\F2.jpg,0.3,-1,86,94,F2,0,1,1,3,17,0,17,0,,,,,,,,,,,,,,,,,,,,,,,,,,,,,,,,,,,,,,,,,,,,,,,,,,,,,,,,,,,,,,,,,,,,,,,,,,,,,,,,,,,,,,,,,,,,,,,0.012434757985829492,None,95,4,-1,673.7388840287549,None,673.7388840287549,None,space,0.7683853428020484,673.7388840287549,None,673.7388840287549,None,673.7388840287549,None,673.7388840287549,None,675.8055297455285,None,0.010936568914075906,None,100,4,676.2221549048409,None,676.2221549048409,None,676.2221549048409,None,676.2221549048409,None,678.2888730708137,None,,,,,,,083,001,cm,2020_Feb_17_1458,Neighborhood,3.2.4,59.99750060673399,
Faces\faces\F2.jpg,0.3,-1,86,94,F2,0,1,1,3,18,0,18,0,,,,,,,,,,,,,,,,,,,,,,,,,,,,,,,,,,,,,,,,,,,,,,,,,,,,,,,,,,,,,,,,,,,,,,,,,,,,,,,,,,,,,,,,,,,,,,,0.012394307183058118,None,95,4,-1,681.2388710482737,None,681.2388710482737,None,None,,681.2388710482737,None,681.2388710482737,None,681.2388710482737,None,681.2388710482737,None,683.3055013695916,None,0.00988937610964058,None,100,4,683.7221693946808,None,683.7221693946808,None,683.7221693946808,None,683.7221693946808,None,685.7888606940755,None,,,,,,,083,001,cm,2020_Feb_17_1458,Neighborhood,3.2.4,59.99750060673399,
Faces\faces\F2.jpg,0.3,-1,86,94,F2,0,1,1,3,19,0,19,0,,,,,,,,,,,,,,,,,,,,,,,,,,,,,,,,,,,,,,,,,,,,,,,,,,,,,,,,,,,,,,,,,,,,,,,,,,,,,,,,,,,,,,,,,,,,,,,0.012635804514957272,None,95,4,-1,688.7388239562938,None,688.7388239562938,None,None,,688.7388239562938,None,688.7388239562938,None,688.7388239562938,None,688.7388239562938,None,690.8054917096983,None,0.01144763764250456,None,100,4,691.2221298494928,None,691.2221298494928,None,691.2221298494928,None,691.2221298494928,None,693.2889298226869,None,,,,,,,083,001,cm,2020_Feb_17_1458,Neighborhood,3.2.4,59.99750060673399,
Faces\faces\F2.jpg,0.3,-1,86,94,F2,0,1,1,3,20,0,20,0,,,,,,,,,,,,,,,,,,,,,,,,,,,,,,,,,,,,,,,,,,,,,,,,,,,,,,,,,,,,,,,,,,,,,,,,,,,,,,,,,,,,,,,,,,,,,,,0.012422079375937756,None,95,4,0,696.2388565584338,None,696.2388565584338,None,space,0.43823011435506487,696.2388565584338,None,696.2388565584338,None,696.2388565584338,None,696.2388565584338,None,698.3054708805535,None,0.010921777202838712,None,100,4,698.7221425281027,None,698.7221425281027,None,698.7221425281027,None,698.7221425281027,None,700.7888401668024,None,,,,,,,083,001,cm,2020_Feb_17_1458,Neighborhood,3.2.4,59.99750060673399,
Faces\faces\F2.jpg,0.3,-1,86,94,F2,0,1,1,3,21,0,21,0,,,,,,,,,,,,,,,,,,,,,,,,,,,,,,,,,,,,,,,,,,,,,,,,,,,,,,,,,,,,,,,,,,,,,,,,,,,,,,,,,,,,,,,,,,,,,,,0.012349328304935625,None,95,4,0,703.7388028252772,None,703.7388028252772,None,space,0.45427519707709507,703.7388028252772,None,703.7388028252772,None,703.7388028252772,None,703.7388028252772,None,705.8055092182549,None,0.010842083083389298,None,100,4,706.2221050960165,None,706.2221050960165,None,706.2221050960165,None,706.2221050960165,None,708.2887858299027,None,,,,,,,083,001,cm,2020_Feb_17_1458,Neighborhood,3.2.4,59.99750060673399,
Faces\faces\F2.jpg,0.3,-1,86,94,F2,0,1,1,3,22,0,22,0,,,,,,,,,,,,,,,,,,,,,,,,,,,,,,,,,,,,,,,,,,,,,,,,,,,,,,,,,,,,,,,,,,,,,,,,,,,,,,,,,,,,,,,,,,,,,,,0.012367138733225147,None,95,4,0,711.2387841092341,None,711.2387841092341,None,space,0.2962073447788498,711.2387841092341,None,711.2387841092341,None,711.2387841092341,None,711.2387841092341,None,713.3054868797517,None,0.010862006613024278,None,100,4,713.722109020348,None,713.722109020348,None,713.722109020348,None,713.722109020348,None,715.7887646988861,None,,,,,,,083,001,cm,2020_Feb_17_1458,Neighborhood,3.2.4,59.99750060673399,
Faces\faces\F2.jpg,0.3,-1,86,94,F2,0,1,1,3,23,0,23,0,,,,,,,,,,,,,,,,,,,,,,,,,,,,,,,,,,,,,,,,,,,,,,,,,,,,,,,,,,,,,,,,,,,,,,,,,,,,,,,,,,,,,,,,,,,,,,,0.012284425896723405,None,95,4,0,718.738772336239,None,718.738772336239,None,space,0.31119014111300203,718.738772336239,None,718.738772336239,None,718.738772336239,None,718.738772336239,None,720.8054838610351,None,0.010849629874883249,None,100,4,721.222100869813,None,721.222100869813,None,721.222100869813,None,721.222100869813,None,723.2887731512928,None,,,,,,,083,001,cm,2020_Feb_17_1458,Neighborhood,3.2.4,59.99750060673399,
Faces\faces\F2.jpg,0.3,-1,86,94,F2,0,1,1,3,24,0,24,0,,,,,,,,,,,,,,,,,,,,,,,,,,,,,,,,,,,,,,,,,,,,,,,,,,,,,,,,,,,,,,,,,,,,,,,,,,,,,,,,,,,,,,,,,,,,,,,0.011300626141746761,None,95,4,-1,726.2387596576291,None,726.2387596576291,None,space,0.451190068663891,726.2387596576291,None,726.2387596576291,None,726.2387596576291,None,726.2387596576291,None,728.3055194818917,None,0.00880263811632176,None,100,4,728.7220869837165,None,728.7220869837165,None,728.7220869837165,None,728.7220869837165,None,730.7887336061044,None,,,,,,,083,001,cm,2020_Feb_17_1458,Neighborhood,3.2.4,59.99750060673399,
Faces\faces\F2.jpg,0.3,-1,86,94,F2,0,1,1,3,25,0,25,0,,,,,,,,,,,,,,,,,,,,,,,,,,,,,,,,,,,,,,,,,,,,,,,,,,,,,,,,,,,,,,,,,,,,,,,,,,,,,,,,,,,,,,,,,,,,,,,0.011460618124147004,None,95,4,0,733.738732187308,None,733.738732187308,None,space,1.3721256534768145,733.738732187308,None,733.738732187308,None,733.738732187308,None,733.738732187308,None,735.8054292222641,None,0.010793783616918518,None,100,4,736.2221147559098,None,736.2221147559098,None,736.2221147559098,None,736.2221147559098,None,738.2887218331098,None,,,,,,,083,001,cm,2020_Feb_17_1458,Neighborhood,3.2.4,59.99750060673399,
Faces\faces\F2.jpg,0.3,-1,86,94,F2,0,1,1,3,26,0,26,0,,,,,,,,,,,,,,,,,,,,,,,,,,,,,,,,,,,,,,,,,,,,,,,,,,,,,,,,,,,,,,,,,,,,,,,,,,,,,,,,,,,,,,,,,,,,,,,0.011834938988158683,None,95,4,0,741.2387364135111,None,741.2387364135111,None,space,0.8150999829140346,741.2387364135111,None,741.2387364135111,None,741.2387364135111,None,741.2387364135111,None,743.3053966201242,None,0.009814511936383497,None,100,4,743.7221023791712,None,743.7221023791712,None,743.7221023791712,None,743.7221023791712,None,745.7885355782928,None,,,,,,,083,001,cm,2020_Feb_17_1458,Neighborhood,3.2.4,59.99750060673399,
Faces\faces\F2.jpg,0.3,-1,86,94,F2,0,1,1,3,27,0,27,0,,,,,,,,,,,,,,,,,,,,,,,,,,,,,,,,,,,,,,,,,,,,,,,,,,,,,,,,,,,,,,,,,,,,,,,,,,,,,,,,,,,,,,,,,,,,,,,0.011237836835789494,None,95,4,0,748.7387234330295,None,748.7387234330295,None,space,0.5630277848717924,748.7387234330295,None,748.7387234330295,None,748.7387234330295,None,748.7387234330295,None,750.8053936014076,None,0.011785130163389113,None,100,4,751.2220909080479,None,751.2220909080479,None,751.2220909080479,None,751.2220909080479,None,753.2887493034314,None,,,,,,,083,001,cm,2020_Feb_17_1458,Neighborhood,3.2.4,59.99750060673399,
Faces\faces\F2.jpg,0.3,-1,86,94,F2,0,1,1,3,28,0,28,0,,,,,,,,,,,,,,,,,,,,,,,,,,,,,,,,,,,,,,,,,,,,,,,,,,,,,,,,,,,,,,,,,,,,,,,,,,,,,,,,,,,,,,,,,,,,,,,0.012716706120954768,None,95,4,0,756.2387107544196,None,756.2387107544196,None,space,0.5339952775198071,756.2387107544196,None,756.2387107544196,None,756.2387107544196,None,756.2387107544196,None,758.3053748853645,None,0.01174407561757107,None,100,4,758.7221047941448,None,758.7221047941448,None,758.7221047941448,None,758.7221047941448,None,760.7887444734847,None,,,,,,,083,001,cm,2020_Feb_17_1458,Neighborhood,3.2.4,59.99750060673399,
Faces\faces\F2.jpg,0.3,-1,86,94,F2,0,1,1,3,29,0,29,0,,,,,,,,,,,,,,,,,,,,,,,,,,,,,,,,,,,,,,,,,,,,,,,,,,,,,,,,,,,,,,,,,,,,,,,,,,,,,,,,,,,,,,,,,,,,,,,0.012230692741013627,None,95,4,0,763.7386986795532,None,763.7386986795532,None,space,0.6379592750977281,763.7386986795532,None,763.7386986795532,None,763.7386986795532,None,763.7386986795532,None,765.8053570749362,None,0.011870257973441767,None,100,4,766.2220226850518,None,766.2220226850518,None,766.2220226850518,None,766.2220226850518,None,768.2886958721465,None,,,,,,,083,001,cm,2020_Feb_17_1458,Neighborhood,3.2.4,59.99750060673399,
Faces\faces\F2.jpg,0.3,-1,86,94,F2,0,1,1,3,30,0,30,0,,,,,,,,,,,,,,,,,,,,,,,,,,,,,,,,,,,,,,,,,,,,,,,,,,,,,,,,,,,,,,,,,,,,,,,,,,,,,,,,,,,,,,,,,,,,,,,0.012219221617669973,None,95,4,-1,771.2387273573613,None,771.2387273573613,None,None,,771.2387273573613,None,771.2387273573613,None,771.2387273573613,None,771.2387273573613,None,773.3053474150429,None,0.012178167071397183,None,100,4,773.7220115158002,None,773.7220115158002,None,773.7220115158002,None,773.7220115158002,None,775.7886756467451,None,,,,,,,083,001,cm,2020_Feb_17_1458,Neighborhood,3.2.4,59.99750060673399,
Faces\faces\F2.jpg,0.3,-1,86,94,F2,0,1,1,3,31,0,31,0,,,,,,,,,,,,,,,,,,,,,,,,,,,,,,,,,,,,,,,,,,,,,,,,,,,,,,,,,,,,,,,,,,,,,,,,,,,,,,,,,,,,,,,,,,,,,,,0.01218933632299013,None,95,4,-1,778.7387358097676,None,778.7387358097676,None,None,,778.7387358097676,None,778.7387358097676,None,778.7387358097676,None,778.7387358097676,None,780.8053456038128,None,0.011732906365523377,None,100,4,781.222011817672,None,781.222011817672,None,781.222011817672,None,781.222011817672,None,783.288646968937,None,,,,,,,083,001,cm,2020_Feb_17_1458,Neighborhood,3.2.4,59.99750060673399,
Faces\faces\F2.jpg,0.3,-1,86,94,F2,0,1,1,3,32,0,32,0,,,,,,,,,,,,,,,,,,,,,,,,,,,,,,,,,,,,,,,,,,,,,,,,,,,,,,,,,,,,,,,,,,,,,,,,,,,,,,,,,,,,,,,,,,,,,,,0.012214391670568148,None,95,4,0,786.2387016982698,None,786.2387016982698,None,None,,786.2387016982698,None,786.2387016982698,None,786.2387016982698,None,786.2387016982698,None,788.3053431888393,None,0.011702417327342118,None,100,4,788.7219698575104,None,788.7219698575104,None,788.7219698575104,None,788.7219698575104,None,790.7886397240168,None,,,,,,,083,001,cm,2020_Feb_17_1458,Neighborhood,3.2.4,59.99750060673399,
Faces\faces\F2.jpg,0.3,-1,86,94,F2,0,1,1,3,33,0,33,0,,,,,,,,,,,,,,,,,,,,,,,,,,,,,,,,,,,,,,,,,,,,,,,,,,,,,,,,,,,,,,,,,,,,,,,,,,,,,,,,,,,,,,,,,,,,,,,0.012226768409163924,None,95,4,-1,793.7386485688567,None,793.7386485688567,None,space,0.7309049569139461,793.7386485688567,None,793.7386485688567,None,793.7386485688567,None,793.7386485688567,None,795.8053537543478,None,0.011707549146194651,None,100,4,796.2219783099172,None,796.2219783099172,None,796.2219783099172,None,796.2219783099172,None,798.2886249323055,None,,,,,,,083,001,cm,2020_Feb_17_1458,Neighborhood,3.2.4,59.99750060673399,
Faces\faces\F2.jpg,0.3,-1,86,94,F2,0,1,1,3,34,0,34,0,,,,,,,,,,,,,,,,,,,,,,,,,,,,,,,,,,,,,,,,,,,,,,,,,,,,,,,,,,,,,,,,,,,,,,,,,,,,,,,,,,,,,,,,,,,,,,,0.012026023751786852,None,95,4,-1,801.2386398145786,None,801.2386398145786,None,None,,801.2386398145786,None,801.2386398145786,None,801.2386398145786,None,801.2386398145786,None,803.3052979080899,None,0.011698492995947163,None,100,4,803.7219629144624,None,803.7219629144624,None,803.7219629144624,None,803.7219629144624,None,805.7886357996854,None,,,,,,,083,001,cm,2020_Feb_17_1458,Neighborhood,3.2.4,59.99750060673399,
Faces\faces\F2.jpg,0.3,-1,86,94,F2,0,1,1,3,35,0,35,0,,,,,,,,,,,,,,,,,,,,,,,,,,,,,,,,,,,,,,,,,,,,,,,,,,,,,,,,,,,,,,,,,,,,,,,,,,,,,,,,,,,,,,,,,,,,,,,0.012166092204552115,None,95,4,0,808.7386383052199,None,808.7386383052199,None,space,0.7667636882197257,808.7386383052199,None,808.7386383052199,None,808.7386383052199,None,808.7386383052199,None,810.8052945875015,None,0.011755848612210684,None,100,4,811.2219532545691,None,811.2219532545691,None,811.2219532545691,None,811.2219532545691,None,813.2886581381886,None,,,,,,,083,001,cm,2020_Feb_17_1458,Neighborhood,3.2.4,59.99750060673399,
Faces\faces\F2.jpg,0.3,-1,86,94,F2,0,1,1,3,36,0,36,0,,,,,,,,,,,,,,,,,,,,,,,,,,,,,,,,,,,,,,,,,,,,,,,,,,,,,,,,,,,,,,,,,,,,,,,,,,,,,,,,,,,,,,,,,,,,,,,0.012223145949064929,None,95,4,0,816.2386383052199,None,816.2386383052199,None,space,0.6426672655798029,816.2386383052199,None,816.2386383052199,None,816.2386383052199,None,816.2386383052199,None,818.3052580610301,None,0.011687625616104924,None,100,4,818.721972272484,None,818.721972272484,None,818.721972272484,None,818.721972272484,None,820.7885995750853,None,,,,,,,083,001,cm,2020_Feb_17_1458,Neighborhood,3.2.4,59.99750060673399,
Faces\faces\F2.jpg,0.3,-1,86,94,F2,0,1,1,3,37,0,37,0,,,,,,,,,,,,,,,,,,,,,,,,,,,,,,,,,,,,,,,,,,,,,,,,,,,,,,,,,,,,,,,,,,,,,,,,,,,,,,,,,,,,,,,,,,,,,,,0.01271217804560365,None,95,4,-1,823.7386014768772,None,823.7386014768772,None,space,0.6166613235382101,823.7386014768772,None,823.7386014768772,None,823.7386014768772,None,823.7386014768772,None,825.8053000211912,None,0.011655325347874168,None,100,4,826.2219463115207,None,826.2219463115207,None,826.2219463115207,None,826.2219463115207,None,828.2885715010207,None,,,,,,,083,001,cm,2020_Feb_17_1458,Neighborhood,3.2.4,59.99750060673399,
Faces\faces\F2.jpg,0.3,-1,86,94,F2,0,1,1,3,38,0,38,0,,,,,,,,,,,,,,,,,,,,,,,,,,,,,,,,,,,,,,,,,,,,,,,,,,,,,,,,,,,,,,,,,,,,,,,,,,,,,,,,,,,,,,,,,,,,,,,0.012137414396420354,None,95,4,0,831.238587892652,None,831.238587892652,None,space,0.8096252384029867,831.238587892652,None,831.238587892652,None,831.238587892652,None,831.238587892652,None,833.3052487030086,None,0.010664280672699533,None,100,4,833.721916426226,None,833.721916426226,None,833.721916426226,None,833.721916426226,None,835.7885769347108,None,,,,,,,083,001,cm,2020_Feb_17_1458,Neighborhood,3.2.4,59.99750060673399,
Faces\faces\F2.jpg,0.3,-1,86,94,F2,0,1,1,3,39,0,39,0,,,,,,,,,,,,,,,,,,,,,,,,,,,,,,,,,,,,,,,,,,,,,,,,,,,,,,,,,,,,,,,,,,,,,,,,,,,,,,,,,,,,,,,,,,,,,,,0.011077241109887837,None,95,4,0,838.7385821570906,None,838.7385821570906,None,space,0.7275725956073984,838.7385821570906,None,838.7385821570906,None,838.7385821570906,None,838.7385821570906,None,840.8052490048799,None,0.010686015432838758,None,100,4,841.2219037476161,None,841.2219037476161,None,841.2219037476161,None,841.2219037476161,None,843.2885630486139,None,,,,,,,083,001,cm,2020_Feb_17_1458,Neighborhood,3.2.4,59.99750060673399,
Faces\faces\M2.jpg,0.7,-1,85,93,M2,0,2,2,2,0,0,0,0,,,,,,,,,,,,,,,,,,,,,,,,,,,,,,,,,,,,,,,,,,,,,,,,,,,,,,,,,,,,,,,,,,,,,,,,,,,,,,,,,,,,,,,0.01625071769922215,2.015889075445102,85,4,848.2885392007524,None,848.2885392007524,None,0.010414330934509053,None,95,4,-1,852.3219216787929,None,852.3219216787929,None,space,0.9651434826209879,852.3219216787929,None,852.3219216787929,None,852.3219216787929,None,852.3219216787929,None,854.4052153160023,None,0.01163057187159211,None,100,4,854.8219117170279,None,854.8219117170279,None,854.8219117170279,None,854.8219117170279,None,856.8885679993095,None,0.008712378488326067,None,94,4,846.2218895596479,None,083,001,cm,2020_Feb_17_1458,Neighborhood,3.2.4,59.99750060673399,
Faces\faces\M2.jpg,0.7,-1,85,93,M2,0,2,2,2,1,0,1,0,,,,,,,,,,,,,,,,,,,,,,,,,,,,,,,,,,,,,,,,,,,,,,,,,,,,,,,,,,,,,,,,,,,,,,,,,,,,,,,,,,,,,,,,,,,,,,,0.01205198471507174,None,95,4,-1,859.8385804666091,None,859.8385804666091,None,None,,859.8385804666091,None,859.8385804666091,None,859.8385804666091,None,859.8385804666091,None,861.9052002224189,None,0.011624836309238162,None,100,4,862.3218661344067,None,862.3218661344067,None,862.3218661344067,None,862.3218661344067,None,864.3885701124109,None,,,,,,,083,001,cm,2020_Feb_17_1458,Neighborhood,3.2.4,59.99750060673399,
Faces\faces\M2.jpg,0.7,-1,85,93,M2,0,2,2,2,2,0,2,0,,,,,,,,,,,,,,,,,,,,,,,,,,,,,,,,,,,,,,,,,,,,,,,,,,,,,,,,,,,,,,,,,,,,,,,,,,,,,,,,,,,,,,,,,,,,,,,0.01205319220207457,None,95,4,-1,867.3385306577843,None,867.3385306577843,None,space,0.9764452558756602,867.3385306577843,None,867.3385306577843,None,867.3385306577843,None,867.3385306577843,None,869.4051878456808,None,0.011537595399204292,None,100,4,869.8218450033901,None,869.8218450033901,None,869.8218450033901,None,869.8218450033901,None,871.8886009033208,None,,,,,,,083,001,cm,2020_Feb_17_1458,Neighborhood,3.2.4,59.99750060673399,
Faces\faces\M2.jpg,0.7,-1,85,93,M2,0,2,2,2,3,0,3,0,,,,,,,,,,,,,,,,,,,,,,,,,,,,,,,,,,,,,,,,,,,,,,,,,,,,,,,,,,,,,,,,,,,,,,,,,,,,,,,,,,,,,,,,,,,,,,,0.011049468917008198,None,95,4,-1,874.8385216016345,None,874.8385216016345,None,space,0.7594152262859097,874.8385216016345,None,874.8385216016345,None,874.8385216016345,None,874.8385216016345,None,876.9052041467507,None,0.011577744329770212,None,100,4,877.3218833410915,None,877.3218833410915,None,877.3218833410915,None,877.3218833410915,None,879.3885070212332,None,,,,,,,083,001,cm,2020_Feb_17_1458,Neighborhood,3.2.4,59.99750060673399,
Faces\faces\M2.jpg,0.7,-1,85,93,M2,0,2,2,2,4,0,4,0,,,,,,,,,,,,,,,,,,,,,,,,,,,,,,,,,,,,,,,,,,,,,,,,,,,,,,,,,,,,,,,,,,,,,,,,,,,,,,,,,,,,,,,,,,,,,,,0.01102380982501927,None,95,4,0,882.3385071117946,None,882.3385071117946,None,None,,882.3385071117946,None,882.3385071117946,None,882.3385071117946,None,882.3385071117946,None,884.405228296484,None,0.01158076304682254,None,100,4,884.8218277967053,None,884.8218277967053,None,884.8218277967053,None,884.8218277967053,None,886.8884949463663,None,,,,,,,083,001,cm,2020_Feb_17_1458,Neighborhood,3.2.4,59.99750060673399,
Faces\faces\M2.jpg,0.7,-1,85,93,M2,0,2,2,2,5,0,5,0,,,,,,,,,,,,,,,,,,,,,,,,,,,,,,,,,,,,,,,,,,,,,,,,,,,,,,,,,,,,,,,,,,,,,,,,,,,,,,,,,,,,,,,,,,,,,,,0.011992515997008013,None,95,4,0,889.8385071117946,None,889.8385071117946,None,None,,889.8385071117946,None,889.8385071117946,None,889.8385071117946,None,889.8385071117946,None,891.9051962980875,None,0.01059545393263761,None,100,4,892.3218151180954,None,892.3218151180954,None,892.3218151180954,None,892.3218151180954,None,894.3884873995748,None,,,,,,,083,001,cm,2020_Feb_17_1458,Neighborhood,3.2.4,59.99750060673399,
Faces\faces\M2.jpg,0.7,-1,85,93,M2,0,2,2,2,6,0,6,0,,,,,,,,,,,,,,,,,,,,,,,,,,,,,,,,,,,,,,,,,,,,,,,,,,,,,,,,,,,,,,,,,,,,,,,,,,,,,,,,,,,,,,,,,,,,,,,0.012014854500648653,None,95,4,0,897.3384817545748,None,897.3384817545748,None,None,,897.3384817545748,None,897.3384817545748,None,897.3384817545748,None,897.3384817545748,None,899.4051772801727,None,0.011662268396776199,None,100,4,899.8218027413568,None,899.8218027413568,None,899.8218027413568,None,899.8218027413568,None,901.8884656648152,None,,,,,,,083,001,cm,2020_Feb_17_1458,Neighborhood,3.2.4,59.99750060673399,
Faces\faces\M2.jpg,0.7,-1,85,93,M2,0,2,2,2,7,0,7,0,,,,,,,,,,,,,,,,,,,,,,,,,,,,,,,,,,,,,,,,,,,,,,,,,,,,,,,,,,,,,,,,,,,,,,,,,,,,,,,,,,,,,,,,,,,,,,,0.011978931772318901,None,95,4,0,904.8384642460182,None,904.8384642460182,None,space,0.2622808939991046,904.8384642460182,None,904.8384642460182,None,904.8384642460182,None,904.8384642460182,None,906.9051256601178,None,0.011494729622427258,None,100,4,907.3217903646187,None,907.3217903646187,None,907.3217903646187,None,907.3217903646187,None,909.3885215110731,None,,,,,,,083,001,cm,2020_Feb_17_1458,Neighborhood,3.2.4,59.99750060673399,
Faces\faces\M2.jpg,0.7,-1,85,93,M2,0,2,2,2,8,0,8,0,,,,,,,,,,,,,,,,,,,,,,,,,,,,,,,,,,,,,,,,,,,,,,,,,,,,,,,,,,,,,,,,,,,,,,,,,,,,,,,,,,,,,,,,,,,,,,,0.013012842223815824,None,95,4,0,912.3384566992268,None,912.3384566992268,None,space,0.5612521757398099,912.3384566992268,None,912.3384566992268,None,912.3384566992268,None,912.3384566992268,None,914.4051132833797,None,0.0115415197301445,None,100,4,914.8218166274537,None,914.8218166274537,None,914.8218166274537,None,914.8218166274537,None,916.8884445337985,None,,,,,,,083,001,cm,2020_Feb_17_1458,Neighborhood,3.2.4,59.99750060673399,
Faces\faces\M2.jpg,0.7,-1,85,93,M2,0,2,2,2,9,0,9,0,,,,,,,,,,,,,,,,,,,,,,,,,,,,,,,,,,,,,,,,,,,,,,,,,,,,,,,,,,,,,,,,,,,,,,,,,,,,,,,,,,,,,,,,,,,,,,,0.011925198616154375,None,95,4,-1,919.8384397944133,None,919.8384397944133,None,space,0.3002234454061181,919.8384397944133,None,919.8384397944133,None,919.8384397944133,None,919.8384397944133,None,921.905114792738,None,0.011484164113880979,None,100,4,922.3217882515173,None,922.3217882515173,None,922.3217882515173,None,922.3217882515173,None,924.3884324589321,None,,,,,,,083,001,cm,2020_Feb_17_1458,Neighborhood,3.2.4,59.99750060673399,
Faces\faces\M2.jpg,0.7,-1,85,93,M2,0,2,2,2,10,0,10,0,,,,,,,,,,,,,,,,,,,,,,,,,,,,,,,,,,,,,,,,,,,,,,,,,,,,,,,,,,,,,,,,,,,,,,,,,,,,,,,,,,,,,,,,,,,,,,,0.012939185538471065,None,95,4,-1,927.3384307382635,None,927.3384307382635,None,space,0.5522153455858643,927.3384307382635,None,927.3384307382635,None,927.3384307382635,None,927.3384307382635,None,929.4051081515613,None,0.011378207159850717,None,100,4,929.8218223630151,None,929.8218223630151,None,929.8218223630151,None,929.8218223630151,None,931.8884415150819,None,,,,,,,083,001,cm,2020_Feb_17_1458,Neighborhood,3.2.4,59.99750060673399,
Faces\faces\M2.jpg,0.7,-1,85,93,M2,0,2,2,2,11,0,11,0,,,,,,,,,,,,,,,,,,,,,,,,,,,,,,,,,,,,,,,,,,,,,,,,,,,,,,,,,,,,,,,,,,,,,,,,,,,,,,,,,,,,,,,,,,,,,,,0.01288454676659967,None,95,4,-1,934.8384183615253,None,934.8384183615253,None,space,0.5721983441735574,934.8384183615253,None,934.8384183615253,None,934.8384183615253,None,934.8384183615253,None,936.9050758512931,None,0.011478428552436526,None,100,4,937.3217417632809,None,937.3217417632809,None,937.3217417632809,None,937.3217417632809,None,939.3884077054554,None,,,,,,,083,001,cm,2020_Feb_17_1458,Neighborhood,3.2.4,59.99750060673399,
Faces\faces\M2.jpg,0.7,-1,85,93,M2,0,2,2,2,12,0,12,0,,,,,,,,,,,,,,,,,,,,,,,,,,,,,,,,,,,,,,,,,,,,,,,,,,,,,,,,,,,,,,,,,,,,,,,,,,,,,,,,,,,,,,,,,,,,,,,0.012950958532655932,None,95,4,-1,942.3384422093868,None,942.3384422093868,None,space,0.6770706735901513,942.3384422093868,None,942.3384422093868,None,942.3384422093868,None,942.3384422093868,None,944.4050637764267,None,0.011535482297404087,None,100,4,944.8217324052594,None,944.8217324052594,None,944.8217324052594,None,944.8217324052594,None,946.8884360813918,None,,,,,,,083,001,cm,2020_Feb_17_1458,Neighborhood,3.2.4,59.99750060673399,
Faces\faces\M2.jpg,0.7,-1,85,93,M2,0,2,2,2,13,0,13,0,,,,,,,,,,,,,,,,,,,,,,,,,,,,,,,,,,,,,,,,,,,,,,,,,,,,,,,,,,,,,,,,,,,,,,,,,,,,,,,,,,,,,,,,,,,,,,,0.012926506928124581,None,95,4,-1,949.83843194575,None,949.83843194575,None,space,1.1390149203089095,949.83843194575,None,949.83843194575,None,949.83843194575,None,949.83843194575,None,951.9050598520948,None,0.011435260904363531,None,100,4,952.3217188210342,None,952.3217188210342,None,952.3217188210342,None,952.3217188210342,None,954.3883666509091,None,,,,,,,083,001,cm,2020_Feb_17_1458,Neighborhood,3.2.4,59.99750060673399,
Faces\faces\M2.jpg,0.7,-1,85,93,M2,0,2,2,2,14,0,14,0,,,,,,,,,,,,,,,,,,,,,,,,,,,,,,,,,,,,,,,,,,,,,,,,,,,,,,,,,,,,,,,,,,,,,,,,,,,,,,,,,,,,,,,,,,,,,,,0.011842183908356674,None,95,4,-1,957.33846454789,None,957.33846454789,None,None,,957.33846454789,None,957.33846454789,None,957.33846454789,None,957.33846454789,None,959.40504083418,None,0.011372773470156972,None,100,4,959.8217275753127,None,959.8217275753127,None,959.8217275753127,None,959.8217275753127,None,961.9050761531648,None,,,,,,,083,001,cm,2020_Feb_17_1458,Neighborhood,3.2.4,59.99750060673399,
Faces\faces\M2.jpg,0.7,-1,85,93,M2,0,2,2,2,15,0,15,0,,,,,,,,,,,,,,,,,,,,,,,,,,,,,,,,,,,,,,,,,,,,,,,,,,,,,,,,,,,,,,,,,,,,,,,,,,,,,,,,,,,,,,,,,,,,,,,0.013166193029974238,None,95,4,0,964.8383634208822,None,964.8383634208822,None,None,,964.8383634208822,None,964.8383634208822,None,964.8383634208822,None,964.8383634208822,None,966.9217150174513,None,0.010428217030494125,None,100,4,967.3216910488409,None,967.3216910488409,None,967.3216910488409,None,967.3216910488409,None,969.4050215143934,None,,,,,,,083,001,cm,2020_Feb_17_1458,Neighborhood,3.2.4,59.99750060673399,
Faces\faces\M2.jpg,0.7,-1,85,93,M2,0,2,2,2,16,0,16,0,,,,,,,,,,,,,,,,,,,,,,,,,,,,,,,,,,,,,,,,,,,,,,,,,,,,,,,,,,,,,,,,,,,,,,,,,,,,,,,,,,,,,,,,,,,,,,,0.012765911202222924,None,95,4,0,972.3383531572458,None,972.3383531572458,None,None,,972.3383531572458,None,972.3383531572458,None,972.3383531572458,None,972.3383531572458,None,974.4217355447245,None,0.012109642203540716,None,100,4,974.8216765590014,None,974.8216765590014,None,974.8216765590014,None,974.8216765590014,None,976.888346123636,None,,,,,,,083,001,cm,2020_Feb_17_1458,Neighborhood,3.2.4,59.99750060673399,
Faces\faces\M2.jpg,0.7,-1,85,93,M2,0,2,2,2,17,0,17,0,,,,,,,,,,,,,,,,,,,,,,,,,,,,,,,,,,,,,,,,,,,,,,,,,,,,,,,,,,,,,,,,,,,,,,,,,,,,,,,,,,,,,,,,,,,,,,,0.01286039703336428,None,95,4,0,979.8383401767642,None,979.8383401767642,None,None,,979.8383401767642,None,979.8383401767642,None,979.8383401767642,None,979.8383401767642,None,981.9050145713454,None,0.01145337320440376,None,100,4,982.3216675028511,None,982.3216675028511,None,982.3216675028511,None,982.3216675028511,None,984.3883171439561,None,,,,,,,083,001,cm,2020_Feb_17_1458,Neighborhood,3.2.4,59.99750060673399,
Faces\faces\M2.jpg,0.7,-1,85,93,M2,0,2,2,2,18,0,18,0,,,,,,,,,,,,,,,,,,,,,,,,,,,,,,,,,,,,,,,,,,,,,,,,,,,,,,,,,,,,,,,,,,,,,,,,,,,,,,,,,,,,,,,,,,,,,,,0.012892697301595035,None,95,4,-1,987.3383308187426,None,987.3383308187426,None,None,,987.3383308187426,None,987.3383308187426,None,987.3383308187426,None,987.3383308187426,None,989.4049898178687,None,0.01131873844178699,None,100,4,989.8216599560596,None,989.8216599560596,None,989.8216599560596,None,989.8216599560596,None,991.8883213701592,None,,,,,,,083,001,cm,2020_Feb_17_1458,Neighborhood,3.2.4,59.99750060673399,
Faces\faces\M2.jpg,0.7,-1,85,93,M2,0,2,2,2,19,0,19,0,,,,,,,,,,,,,,,,,,,,,,,,,,,,,,,,,,,,,,,,,,,,,,,,,,,,,,,,,,,,,,,,,,,,,,,,,,,,,,,,,,,,,,,,,,,,,,,0.012836247299674142,None,95,4,0,994.8383142158009,None,994.8383142158009,None,None,,994.8383142158009,None,994.8383142158009,None,994.8383142158009,None,994.8383142158009,None,996.9049774411305,None,0.011399338176488527,None,100,4,997.3216822945628,None,997.3216822945628,None,997.3216822945628,None,997.3216822945628,None,999.3883083896776,None,,,,,,,083,001,cm,2020_Feb_17_1458,Neighborhood,3.2.4,59.99750060673399,
Faces\faces\M2.jpg,0.7,-1,85,93,M2,0,2,2,2,20,0,20,0,,,,,,,,,,,,,,,,,,,,,,,,,,,,,,,,,,,,,,,,,,,,,,,,,,,,,,,,,,,,,,,,,,,,,,,,,,,,,,,,,,,,,,,,,,,,,,,0.012832021097437973,None,95,4,0,1002.3383039521641,None,1002.3383039521641,None,space,0.31878493032536426,1002.3383039521641,None,1002.3383039521641,None,1002.3383039521641,None,1002.3383039521641,None,1004.4049665737507,None,0.011343190046773088,None,100,4,1004.821613769695,None,1004.821613769695,None,1004.821613769695,None,1004.821613769695,None,1006.8882920886076,None,,,,,,,083,001,cm,2020_Feb_17_1458,Neighborhood,3.2.4,59.99750060673399,
Faces\faces\M2.jpg,0.7,-1,85,93,M2,0,2,2,2,21,0,21,0,,,,,,,,,,,,,,,,,,,,,,,,,,,,,,,,,,,,,,,,,,,,,,,,,,,,,,,,,,,,,,,,,,,,,,,,,,,,,,,,,,,,,,,,,,,,,,,0.012805154518446216,None,95,4,-1,1009.8382879529659,None,1009.8382879529659,None,space,0.4207517449694933,1009.8382879529659,None,1009.8382879529659,None,1009.8382879529659,None,1009.8382879529659,None,1011.9049375940708,None,0.011341982560225006,None,100,4,1012.321638825043,None,1012.321638825043,None,1012.321638825043,None,1012.321638825043,None,1014.3714382916964,None,,,,,,,083,001,cm,2020_Feb_17_1458,Neighborhood,3.2.4,59.99750060673399,
Faces\faces\M2.jpg,0.7,-1,85,93,M2,0,2,2,2,22,0,22,0,,,,,,,,,,,,,,,,,,,,,,,,,,,,,,,,,,,,,,,,,,,,,,,,,,,,,,,,,,,,,,,,,,,,,,,,,,,,,,,,,,,,,,,,,,,,,,,0.012861906392117817,None,95,4,-1,1017.3382795005596,None,1017.3382795005596,None,space,1.5497079995388958,1017.3382795005596,None,1017.3382795005596,None,1017.3382795005596,None,1017.3382795005596,None,1019.4216320027435,None,0.011237836836244242,None,100,4,1019.8216068266465,None,1019.8216068266465,None,1019.8216068266465,None,1019.8216068266465,None,1021.8882935979664,None,,,,,,,083,001,cm,2020_Feb_17_1458,Neighborhood,3.2.4,59.99750060673399,
Faces\faces\M2.jpg,0.7,-1,85,93,M2,0,2,2,2,23,0,23,0,,,,,,,,,,,,,,,,,,,,,,,,,,,,,,,,,,,,,,,,,,,,,,,,,,,,,,,,,,,,,,,,,,,,,,,,,,,,,,,,,,,,,,,,,,,,,,,0.00981028573369258,None,95,4,-1,1024.8382677275645,None,1024.8382677275645,None,space,1.0886702734292157,1024.8382677275645,None,1024.8382677275645,None,1024.8382677275645,None,1024.8382677275645,None,1026.9049270285627,None,0.011375490315458592,None,100,4,1027.3215926386783,None,1027.3215926386783,None,1027.3215926386783,None,1027.3215926386783,None,1029.3882996353996,None,,,,,,,083,001,cm,2020_Feb_17_1458,Neighborhood,3.2.4,59.99750060673399,
Faces\faces\M2.jpg,0.7,-1,85,93,M2,0,2,2,2,24,0,24,0,,,,,,,,,,,,,,,,,,,,,,,,,,,,,,,,,,,,,,,,,,,,,,,,,,,,,,,,,,,,,,,,,,,,,,,,,,,,,,,,,,,,,,,,,,,,,,,0.013059632332897309,None,95,4,-1,1032.338312102699,None,1032.338312102699,None,space,1.2285733001758672,1032.338312102699,None,1032.338312102699,None,1032.338312102699,None,1032.338312102699,None,1034.4049240098457,None,0.01185878685055286,None,100,4,1034.8215636589985,None,1034.8215636589985,None,1034.8215636589985,None,1034.8215636589985,None,1036.8882863530462,None,,,,,,,083,001,cm,2020_Feb_17_1458,Neighborhood,3.2.4,59.99750060673399,
Faces\faces\M2.jpg,0.7,-1,85,93,M2,0,2,2,2,25,0,25,0,,,,,,,,,,,,,,,,,,,,,,,,,,,,,,,,,,,,,,,,,,,,,,,,,,,,,,,,,,,,,,,,,,,,,,,,,,,,,,,,,,,,,,,,,,,,,,,0.012723347298106091,None,95,4,0,1039.8382429740882,None,1039.8382429740882,None,None,,1039.8382429740882,None,1039.8382429740882,None,1039.8382429740882,None,1039.8382429740882,None,1041.9049237079744,None,0.011407790582779853,None,100,4,1042.3215663758438,None,1042.3215663758438,None,1042.3215663758438,None,1042.3215663758438,None,1044.3883177476991,None,,,,,,,083,001,cm,2020_Feb_17_1458,Neighborhood,3.2.4,59.99750060673399,
Faces\faces\M2.jpg,0.7,-1,85,93,M2,0,2,2,2,26,0,26,0,,,,,,,,,,,,,,,,,,,,,,,,,,,,,,,,,,,,,,,,,,,,,,,,,,,,,,,,,,,,,,,,,,,,,,,,,,,,,,,,,,,,,,,,,,,,,,,0.012819644358842197,None,95,4,-1,1047.3382496152644,None,1047.3382496152644,None,None,,1047.3382496152644,None,1047.3382496152644,None,1047.3382496152644,None,1047.3382496152644,None,1049.4048898983478,None,0.011135804213608935,None,100,4,1049.8215383017787,None,1049.8215383017787,None,1049.8215383017787,None,1049.8215383017787,None,1051.9049255192044,None,,,,,,,083,001,cm,2020_Feb_17_1458,Neighborhood,3.2.4,59.99750060673399,
Faces\faces\M2.jpg,0.7,-1,85,93,M2,0,2,2,2,27,0,27,0,,,,,,,,,,,,,,,,,,,,,,,,,,,,,,,,,,,,,,,,,,,,,,,,,,,,,,,,,,,,,,,,,,,,,,,,,,,,,,,,,,,,,,,,,,,,,,,0.01274961013268694,None,95,4,0,1054.8382185224832,None,1054.8382185224832,None,None,,1054.8382185224832,None,1054.8382185224832,None,1054.8382185224832,None,1054.8382185224832,None,1056.9049182742842,None,0.011298211168650596,None,100,4,1057.3215850918868,None,1057.3215850918868,None,1057.3215850918868,None,1057.3215850918868,None,1059.3882090738998,None,,,,,,,083,001,cm,2020_Feb_17_1458,Neighborhood,3.2.4,59.99750060673399,
Faces\faces\M2.jpg,0.7,-1,85,93,M2,0,2,2,2,28,0,28,0,,,,,,,,,,,,,,,,,,,,,,,,,,,,,,,,,,,,,,,,,,,,,,,,,,,,,,,,,,,,,,,,,,,,,,,,,,,,,,,,,,,,,,,,,,,,,,,0.011729887649380544,None,95,4,-1,1062.3382058438733,None,1062.3382058438733,None,space,0.5675045416592184,1062.3382058438733,None,1062.3382058438733,None,1062.3382058438733,None,1062.3382058438733,None,1064.4049375940708,None,0.011241459295433742,None,100,4,1064.8215651683568,None,1064.8215651683568,None,1064.8215651683568,None,1064.8215651683568,None,1066.8881966971617,None,,,,,,,083,001,cm,2020_Feb_17_1458,Neighborhood,3.2.4,59.99750060673399,
Faces\faces\M2.jpg,0.7,-1,85,93,M2,0,2,2,2,29,0,29,0,,,,,,,,,,,,,,,,,,,,,,,,,,,,,,,,,,,,,,,,,,,,,,,,,,,,,,,,,,,,,,,,,,,,,,,,,,,,,,,,,,,,,,,,,,,,,,,0.012697688205662416,None,95,4,-1,1069.8382121831783,None,1069.8382121831783,None,None,,1069.8382121831783,None,1069.8382121831783,None,1069.8382121831783,None,1069.8382121831783,None,1071.9048932189362,None,0.011261986569479632,None,100,4,1072.321552187875,None,1072.321552187875,None,1072.321552187875,None,1072.321552187875,None,1074.3881840185518,None,,,,,,,083,001,cm,2020_Feb_17_1458,Neighborhood,3.2.4,59.99750060673399,
Faces\faces\M2.jpg,0.7,-1,85,93,M2,0,2,2,2,30,0,30,0,,,,,,,,,,,,,,,,,,,,,,,,,,,,,,,,,,,,,,,,,,,,,,,,,,,,,,,,,,,,,,,,,,,,,,,,,,,,,,,,,,,,,,,,,,,,,,,0.012753836335832602,None,95,4,-1,1077.3381810903966,None,1077.3381810903966,None,space,0.6684781985268273,1077.3381810903966,None,1077.3381810903966,None,1077.3381810903966,None,1077.3381810903966,None,1079.4048403913948,None,0.011166896994836861,None,100,4,1079.8215041902808,None,1079.8215041902808,None,1079.8215041902808,None,1079.8215041902808,None,1081.888173151172,None,,,,,,,083,001,cm,2020_Feb_17_1458,Neighborhood,3.2.4,59.99750060673399,
Faces\faces\M2.jpg,0.7,-1,85,93,M2,0,2,2,2,31,0,31,0,,,,,,,,,,,,,,,,,,,,,,,,,,,,,,,,,,,,,,,,,,,,,,,,,,,,,,,,,,,,,,,,,,,,,,,,,,,,,,,,,,,,,,,,,,,,,,,0.012672330986788438,None,95,4,0,1084.8381952783648,None,1084.8381952783648,None,None,,1084.8381952783648,None,1084.8381952783648,None,1084.8381952783648,None,1084.8381952783648,None,1086.9048298258867,None,0.01120463095321611,None,100,4,1087.3215322643455,None,1087.3215322643455,None,1087.3215322643455,None,1087.3215322643455,None,1089.3881610763056,None,,,,,,,083,001,cm,2020_Feb_17_1458,Neighborhood,3.2.4,59.99750060673399,
Faces\faces\M2.jpg,0.7,-1,85,93,M2,0,2,2,2,32,0,32,0,,,,,,,,,,,,,,,,,,,,,,,,,,,,,,,,,,,,,,,,,,,,,,,,,,,,,,,,,,,,,,,,,,,,,,,,,,,,,,,,,,,,,,,,,,,,,,,0.012771948635418084,None,95,4,0,1092.3381581481503,None,1092.3381581481503,None,None,,1092.3381581481503,None,1092.3381581481503,None,1092.3381581481503,None,1092.3381581481503,None,1094.4048431082397,None,0.011346510634666629,None,100,4,1094.8215198876073,None,1094.8215198876073,None,1094.8215198876073,None,1094.8215198876073,None,1096.888141756519,None,,,,,,,083,001,cm,2020_Feb_17_1458,Neighborhood,3.2.4,59.99750060673399,
Faces\faces\M2.jpg,0.7,-1,85,93,M2,0,2,2,2,33,0,33,0,,,,,,,,,,,,,,,,,,,,,,,,,,,,,,,,,,,,,,,,,,,,,,,,,,,,,,,,,,,,,,,,,,,,,,,,,,,,,,,,,,,,,,,,,,,,,,,0.013081970835628454,None,95,4,0,1099.8381427526951,None,1099.8381427526951,None,None,,1099.8381427526951,None,1099.8381427526951,None,1099.8381427526951,None,1099.8381427526951,None,1101.904871484176,None,0.011190442984570836,None,100,4,1102.3215325662172,None,1102.3215325662172,None,1102.3215325662172,None,1102.3215325662172,None,1104.3881595669473,None,,,,,,,083,001,cm,2020_Feb_17_1458,Neighborhood,3.2.4,59.99750060673399,
Faces\faces\M2.jpg,0.7,-1,85,93,M2,0,2,2,2,34,0,34,0,,,,,,,,,,,,,,,,,,,,,,,,,,,,,,,,,,,,,,,,,,,,,,,,,,,,,,,,,,,,,,,,,,,,,,,,,,,,,,,,,,,,,,,,,,,,,,,0.013417350254712801,None,95,4,-1,1107.3381264516256,None,1107.3381264516256,None,None,,1107.3381264516256,None,1107.3381264516256,None,1107.3381264516256,None,1107.3381264516256,None,1109.4047893750835,None,0.011034979077066964,None,100,4,1109.8214779274458,None,1109.8214779274458,None,1109.8214779274458,None,1109.8214779274458,None,1111.8881043244323,None,,,,,,,083,001,cm,2020_Feb_17_1458,Neighborhood,3.2.4,59.99750060673399,
Faces\faces\M2.jpg,0.7,-1,85,93,M2,0,2,2,2,35,0,35,0,,,,,,,,,,,,,,,,,,,,,,,,,,,,,,,,,,,,,,,,,,,,,,,,,,,,,,,,,,,,,,,,,,,,,,,,,,,,,,,,,,,,,,,,,,,,,,,0.012613767884431581,None,95,4,-1,1114.8381904484181,None,1114.8381904484181,None,space,1.4361659159117153,1114.8381904484181,None,1114.8381904484181,None,1114.8381904484181,None,1114.8381904484181,None,1116.9047926956719,None,0.011817128560778656,None,100,4,1117.3214423065892,None,1117.3214423065892,None,1117.3214423065892,None,1117.3214423065892,None,1119.3881471902087,None,,,,,,,083,001,cm,2020_Feb_17_1458,Neighborhood,3.2.4,59.99750060673399,
Faces\faces\M2.jpg,0.7,-1,85,93,M2,0,2,2,2,36,0,36,0,,,,,,,,,,,,,,,,,,,,,,,,,,,,,,,,,,,,,,,,,,,,,,,,,,,,,,,,,,,,,,,,,,,,,,,,,,,,,,,,,,,,,,,,,,,,,,,0.012677764676027437,None,95,4,-1,1122.3381445639252,None,1122.3381445639252,None,None,,1122.3381445639252,None,1122.3381445639252,None,1122.3381445639252,None,1122.3381445639252,None,1124.4047640178637,None,0.011162368919485743,None,100,4,1124.8214323448246,None,1124.8214323448246,None,1124.8214323448246,None,1124.8214323448246,None,1126.8880934570525,None,,,,,,,083,001,cm,2020_Feb_17_1458,Neighborhood,3.2.4,59.99750060673399,
Faces\faces\M2.jpg,0.7,-1,85,93,M2,0,2,2,2,37,0,37,0,,,,,,,,,,,,,,,,,,,,,,,,,,,,,,,,,,,,,,,,,,,,,,,,,,,,,,,,,,,,,,,,,,,,,,,,,,,,,,,,,,,,,,,,,,,,,,,0.01261376788306734,None,95,4,-1,1129.8381454695404,None,1129.8381454695404,None,None,,1129.8381454695404,None,1129.8381454695404,None,1129.8381454695404,None,1129.8381454695404,None,1131.9047516411251,None,0.011149086567002087,None,100,4,1132.321421779316,None,1132.321421779316,None,1132.321421779316,None,1132.321421779316,None,1134.3880819859291,None,,,,,,,083,001,cm,2020_Feb_17_1458,Neighborhood,3.2.4,59.99750060673399,
Faces\faces\M2.jpg,0.7,-1,85,93,M2,0,2,2,2,38,0,38,0,,,,,,,,,,,,,,,,,,,,,,,,,,,,,,,,,,,,,,,,,,,,,,,,,,,,,,,,,,,,,,,,,,,,,,,,,,,,,,,,,,,,,,,,,,,,,,,0.012624333392068365,None,95,4,0,1137.3380853970789,None,1137.3380853970789,None,None,,1137.3380853970789,None,1137.3380853970789,None,1137.3380853970789,None,1137.3380853970789,None,1139.404780017062,None,0.011122219988465076,None,100,4,1139.8214072894762,None,1139.8214072894762,None,1139.8214072894762,None,1139.8214072894762,None,1141.8880744391377,None,,,,,,,083,001,cm,2020_Feb_17_1458,Neighborhood,3.2.4,59.99750060673399,
Faces\faces\M2.jpg,0.7,-1,85,93,M2,0,2,2,2,39,0,39,0,,,,,,,,,,,,,,,,,,,,,,,,,,,,,,,,,,,,,,,,,,,,,,,,,,,,,,,,,,,,,,,,,,,,,,,,,,,,,,,,,,,,,,,,,,,,,,,0.012532564405773883,None,95,4,-1,1144.8380654735492,None,1144.8380654735492,None,space,0.43409869875222284,1144.8380654735492,None,1144.8380654735492,None,1144.8380654735492,None,1144.8380654735492,None,1146.904726585777,None,0.011120710630166286,None,100,4,1147.3213924977645,None,1147.3213924977645,None,1147.3213924977645,None,1147.3213924977645,None,1149.3880409313829,None,,,,,,,083,001,cm,2020_Feb_17_1458,Neighborhood,3.2.4,59.99750060673399,
Faces\faces\F1.jpg,0.7,1,79,87,F1,0,3,3,0,0,0,0,0,,,,,,,,,,,,,,,,,,,,,,,,,,,,,,,,,,,,,,,,,,,,,,,,,,,,,,,,,,,,,,,,,,,,,,,,,,,,,,,,,,,,,,,0.015557016614820895,None,79,4,1154.388049685661,None,1154.388049685661,None,0.009594749364623567,None,95,4,0,1156.4880519195112,None,1156.4880519195112,None,None,,1156.4880519195112,None,1156.4880519195112,None,1156.4880519195112,None,1156.4880519195112,None,1158.5548678919035,None,0.010803745381963381,None,100,4,1158.988027769778,None,1158.988027769778,None,1158.988027769778,None,1158.988027769778,None,1161.0547725004576,None,0.007162569362662907,None,93,4,1152.3213662349299,None,083,001,cm,2020_Feb_17_1458,Neighborhood,3.2.4,59.99750060673399,
Faces\faces\F1.jpg,0.7,1,79,87,F1,0,3,3,0,1,0,1,0,,,,,,,,,,,,,,,,,,,,,,,,,,,,,,,,,,,,,,,,,,,,,,,,,,,,,,,,,,,,,,,,,,,,,,,,,,,,,,,,,,,,,,,,,,,,,,,0.01230314194026505,None,95,4,0,1164.0047031605359,None,1164.0047031605359,None,None,,1164.0047031605359,None,1164.0047031605359,None,1164.0047031605359,None,1164.0047031605359,None,1166.0714017048504,None,0.011766112249006255,None,100,4,1166.4880102612215,None,1166.4880102612215,None,1166.4880102612215,None,1166.4880102612215,None,1168.5547314459109,None,,,,,,,083,001,cm,2020_Feb_17_1458,Neighborhood,3.2.4,59.99750060673399,
Faces\faces\F1.jpg,0.7,1,79,87,F1,0,3,3,0,2,0,2,0,,,,,,,,,,,,,,,,,,,,,,,,,,,,,,,,,,,,,,,,,,,,,,,,,,,,,,,,,,,,,,,,,,,,,,,,,,,,,,,,,,,,,,,,,,,,,,,0.012241861992606573,None,95,4,1,1171.504694104386,None,1171.504694104386,None,space,0.7672928692477399,1171.504694104386,None,1171.504694104386,None,1171.504694104386,None,1171.504694104386,None,1173.5713881206257,None,0.011746792463327438,None,100,4,1173.9880120724515,None,1173.9880120724515,None,1173.9880120724515,None,1173.9880120724515,None,1176.054534323714,None,,,,,,,083,001,cm,2020_Feb_17_1458,Neighborhood,3.2.4,59.99750060673399,
Faces\faces\F1.jpg,0.7,1,79,87,F1,0,3,3,0,3,0,3,0,,,,,,,,,,,,,,,,,,,,,,,,,,,,,,,,,,,,,,,,,,,,,,,,,,,,,,,,,,,,,,,,,,,,,,,,,,,,,,,,,,,,,,,,,,,,,,,0.012488189271152805,None,95,4,1,1179.0046750864713,None,1179.0046750864713,None,space,0.23226488876343865,1179.0046750864713,None,1179.0046750864713,None,1179.0046750864713,None,1179.0046750864713,None,1181.0713823850638,None,0.011756150484416139,None,100,4,1181.4880479951798,None,1181.4880479951798,None,1181.4880479951798,None,1181.4880479951798,None,1183.5546665435031,None,,,,,,,083,001,cm,2020_Feb_17_1458,Neighborhood,3.2.4,59.99750060673399,
Faces\faces\F1.jpg,0.7,1,79,87,F1,0,3,3,0,4,0,4,0,,,,,,,,,,,,,,,,,,,,,,,,,,,,,,,,,,,,,,,,,,,,,,,,,,,,,,,,,,,,,,,,,,,,,,,,,,,,,,,,,,,,,,,,,,,,,,,0.0120543996890774,None,95,4,0,1186.5046624078614,None,1186.5046624078614,None,space,0.3482316056010859,1186.5046624078614,None,1186.5046624078614,None,1186.5046624078614,None,1186.5046624078614,None,1188.571392044957,None,0.010644659014360514,None,100,4,1188.98799003582,None,1188.98799003582,None,1188.98799003582,None,1188.98799003582,None,1191.0546535630215,None,,,,,,,083,001,cm,2020_Feb_17_1458,Neighborhood,3.2.4,59.99750060673399,
Faces\faces\F1.jpg,0.7,1,79,87,F1,0,3,3,0,5,0,5,0,,,,,,,,,,,,,,,,,,,,,,,,,,,,,,,,,,,,,,,,,,,,,,,,,,,,,,,,,,,,,,,,,,,,,,,,,,,,,,,,,,,,,,,,,,,,,,,0.012214391671022895,None,95,4,0,1194.0046503329945,None,1194.0046503329945,None,space,0.4222399722757473,1194.0046503329945,None,1194.0046503329945,None,1194.0046503329945,None,1194.0046503329945,None,1196.0713114452228,None,0.011996138457561756,None,100,4,1196.4880156949116,None,1196.4880156949116,None,1196.4880156949116,None,1196.4880156949116,None,1198.5546417900264,None,,,,,,,083,001,cm,2020_Feb_17_1458,Neighborhood,3.2.4,59.99750060673399,
Faces\faces\F1.jpg,0.7,1,79,87,F1,0,3,3,0,6,0,6,0,,,,,,,,,,,,,,,,,,,,,,,,,,,,,,,,,,,,,,,,,,,,,,,,,,,,,,,,,,,,,,,,,,,,,,,,,,,,,,,,,,,,,,,,,,,,,,,0.012186921349439217,None,95,4,1,1201.5046379562564,None,1201.5046379562564,None,space,0.5541805301227214,1201.5046379562564,None,1201.5046379562564,None,1201.5046379562564,None,1201.5046379562564,None,1203.571300577843,None,0.011681286311613803,None,100,4,1203.9880033181735,None,1203.9880033181735,None,1203.9880033181735,None,1203.9880033181735,None,1206.0546291114165,None,,,,,,,083,001,cm,2020_Feb_17_1458,Neighborhood,3.2.4,59.99750060673399,
Faces\faces\F1.jpg,0.7,1,79,87,F1,0,3,3,0,7,0,7,0,,,,,,,,,,,,,,,,,,,,,,,,,,,,,,,,,,,,,,,,,,,,,,,,,,,,,,,,,,,,,,,,,,,,,,,,,,,,,,,,,,,,,,,,,,,,,,,0.012087605571650784,None,95,4,0,1209.0046231645447,None,1209.0046231645447,None,space,0.34512232745464644,1209.0046231645447,None,1209.0046231645447,None,1209.0046231645447,None,1209.0046231645447,None,1211.0712688813178,None,0.011694266793256247,None,100,4,1211.4879746403653,None,1211.4879746403653,None,1211.4879746403653,None,1211.4879746403653,None,1213.5546496386896,None,,,,,,,083,001,cm,2020_Feb_17_1458,Neighborhood,3.2.4,59.99750060673399,
Faces\faces\F1.jpg,0.7,1,79,87,F1,0,3,3,0,8,0,8,0,,,,,,,,,,,,,,,,,,,,,,,,,,,,,,,,,,,,,,,,,,,,,,,,,,,,,,,,,,,,,,,,,,,,,,,,,,,,,,,,,,,,,,,,,,,,,,,0.01216669594805353,None,95,4,1,1216.504617730855,None,1216.504617730855,None,space,0.3920766536680276,1216.504617730855,None,1216.504617730855,None,1216.504617730855,None,1216.504617730855,None,1218.5712568064514,None,0.011638722407042223,None,100,4,1218.987992752665,None,1218.987992752665,None,1218.987992752665,None,1218.987992752665,None,1221.0545910755868,None,,,,,,,083,001,cm,2020_Feb_17_1458,Neighborhood,3.2.4,59.99750060673399,
Faces\faces\F1.jpg,0.7,1,79,87,F1,0,3,3,0,9,0,9,0,,,,,,,,,,,,,,,,,,,,,,,,,,,,,,,,,,,,,,,,,,,,,,,,,,,,,,,,,,,,,,,,,,,,,,,,,,,,,,,,,,,,,,,,,,,,,,,0.012140734984768642,None,95,4,1,1224.0046029391433,None,1224.0046029391433,None,space,0.8520795637109586,1224.0046029391433,None,1224.0046029391433,None,1224.0046029391433,None,1224.0046029391433,None,1226.0712719000348,None,0.011652608503482043,None,100,4,1226.4879287558724,None,1226.4879287558724,None,1226.4879287558724,None,1226.4879287558724,None,1228.5546082822716,None,,,,,,,083,001,cm,2020_Feb_17_1458,Neighborhood,3.2.4,59.99750060673399,
Faces\faces\F1.jpg,0.7,1,79,87,F1,0,3,3,0,10,0,10,0,,,,,,,,,,,,,,,,,,,,,,,,,,,,,,,,,,,,,,,,,,,,,,,,,,,,,,,,,,,,,,,,,,,,,,,,,,,,,,,,,,,,,,,,,,,,,,,0.012084586855053203,None,95,4,0,1231.5046267870048,None,1231.5046267870048,None,space,0.44099918313531816,1231.5046267870048,None,1231.5046267870048,None,1231.5046267870048,None,1231.5046267870048,None,1233.5712501652747,None,0.01164928791422426,None,100,4,1233.987911851059,None,1233.987911851059,None,1233.987911851059,None,1233.987911851059,None,1236.0546176402936,None,,,,,,,083,001,cm,2020_Feb_17_1458,Neighborhood,3.2.4,59.99750060673399,
Faces\faces\F1.jpg,0.7,1,79,87,F1,0,3,3,0,11,0,11,0,,,,,,,,,,,,,,,,,,,,,,,,,,,,,,,,,,,,,,,,,,,,,,,,,,,,,,,,,,,,,,,,,,,,,,,,,,,,,,,,,,,,,,,,,,,,,,,0.011137011700157018,None,95,4,0,1239.0046231645447,None,1239.0046231645447,None,space,0.37993658280083764,1239.0046231645447,None,1239.0046231645447,None,1239.0046231645447,None,1239.0046231645447,None,1241.071241109125,None,0.01165864593713195,None,100,4,1241.4879139641607,None,1241.4879139641607,None,1241.4879139641607,None,1241.4879139641607,None,1243.5545666239823,None,,,,,,,083,001,cm,2020_Feb_17_1458,Neighborhood,3.2.4,59.99750060673399,
Faces\faces\F1.jpg,0.7,1,79,87,F1,0,3,3,0,12,0,12,0,,,,,,,,,,,,,,,,,,,,,,,,,,,,,,,,,,,,,,,,,,,,,,,,,,,,,,,,,,,,,,,,,,,,,,,,,,,,,,,,,,,,,,,,,,,,,,,0.011094749666426651,None,95,4,0,1246.504723687809,None,1246.504723687809,None,space,0.6297984765142246,1246.504723687809,None,1246.504723687809,None,1246.504723687809,None,1246.504723687809,None,1248.5712260155415,None,0.010156532532619167,None,100,4,1248.9878714002557,None,1248.9878714002557,None,1248.9878714002557,None,1248.9878714002557,None,1251.0545530397571,None,,,,,,,083,001,cm,2020_Feb_17_1458,Neighborhood,3.2.4,59.99750060673399,
Faces\faces\F1.jpg,0.7,1,79,87,F1,0,3,3,0,13,0,13,0,,,,,,,,,,,,,,,,,,,,,,,,,,,,,,,,,,,,,,,,,,,,,,,,,,,,,,,,,,,,,,,,,,,,,,,,,,,,,,,,,,,,,,,,,,,,,,,0.011824977224023314,None,95,4,1,1254.0045479985001,None,1254.0045479985001,None,space,0.3229860782821561,1254.0045479985001,None,1254.0045479985001,None,1254.0045479985001,None,1254.0045479985001,None,1256.0710648160725,None,0.010605415698137222,None,100,4,1256.487875928331,None,1256.487875928331,None,1256.487875928331,None,1256.487875928331,None,1258.554528890024,None,,,,,,,083,001,cm,2020_Feb_17_1458,Neighborhood,3.2.4,59.99750060673399,
Faces\faces\F1.jpg,0.7,1,79,87,F1,0,3,3,0,14,0,14,0,,,,,,,,,,,,,,,,,,,,,,,,,,,,,,,,,,,,,,,,,,,,,,,,,,,,,,,,,,,,,,,,,,,,,,,,,,,,,,,,,,,,,,,,,,,,,,,0.012080662524112995,None,95,4,0,1261.5045353198902,None,1261.5045353198902,None,space,0.2808946027157617,1261.5045353198902,None,1261.5045353198902,None,1261.5045353198902,None,1261.5045353198902,None,1263.5711985452203,None,0.012072210117366922,None,100,4,1263.9878505711113,None,1263.9878505711113,None,1263.9878505711113,None,1263.9878505711113,None,1266.0545276825374,None,,,,,,,083,001,cm,2020_Feb_17_1458,Neighborhood,3.2.4,59.99750060673399,
Faces\faces\F1.jpg,0.7,1,79,87,F1,0,3,3,0,15,0,15,0,,,,,,,,,,,,,,,,,,,,,,,,,,,,,,,,,,,,,,,,,,,,,,,,,,,,,,,,,,,,,,,,,,,,,,,,,,,,,,,,,,,,,,,,,,,,,,,0.012046551025377994,None,95,4,0,1269.004525659997,None,1269.004525659997,None,space,0.49082400700854123,1269.004525659997,None,1269.004525659997,None,1269.004525659997,None,1269.004525659997,None,1271.0712245061832,None,0.011619704491749872,None,100,4,1271.487851476726,None,1271.487851476726,None,1271.487851476726,None,1271.487851476726,None,1273.5545183245158,None,,,,,,,083,001,cm,2020_Feb_17_1458,Neighborhood,3.2.4,59.99750060673399,
Faces\faces\F1.jpg,0.7,1,79,87,F1,0,3,3,0,16,0,16,0,,,,,,,,,,,,,,,,,,,,,,,,,,,,,,,,,,,,,,,,,,,,,,,,,,,,,,,,,,,,,,,,,,,,,,,,,,,,,,,,,,,,,,,,,,,,,,,0.011037695922823332,None,95,4,0,1276.5045316974306,None,1276.5045316974306,None,space,0.4927961345933909,1276.5045316974306,None,1276.5045316974306,None,1276.5045316974306,None,1276.5045316974306,None,1278.571172584257,None,0.010554097515068861,None,100,4,1278.9878647590795,None,1278.9878647590795,None,1278.9878647590795,None,1278.9878647590795,None,1281.0545026271893,None,,,,,,,083,001,cm,2020_Feb_17_1458,Neighborhood,3.2.4,59.99750060673399,
Faces\faces\F1.jpg,0.7,1,79,87,F1,0,3,3,0,17,0,17,0,,,,,,,,,,,,,,,,,,,,,,,,,,,,,,,,,,,,,,,,,,,,,,,,,,,,,,,,,,,,,,,,,,,,,,,,,,,,,,,,,,,,,,,,,,,,,,,0.012007307709154702,None,95,4,1,1284.0045033214938,None,1284.0045033214938,None,space,0.35877507723398594,1284.0045033214938,None,1284.0045033214938,None,1284.0045033214938,None,1284.0045033214938,None,1286.0710092716863,None,0.011560537645436852,None,100,4,1286.4878077053345,None,1286.4878077053345,None,1286.4878077053345,None,1286.4878077053345,None,1288.5544796849426,None,,,,,,,083,001,cm,2020_Feb_17_1458,Neighborhood,3.2.4,59.99750060673399,
Faces\faces\F1.jpg,0.7,1,79,87,F1,0,3,3,0,18,0,18,0,,,,,,,,,,,,,,,,,,,,,,,,,,,,,,,,,,,,,,,,,,,,,,,,,,,,,,,,,,,,,,,,,,,,,,,,,,,,,,,,,,,,,,,,,,,,,,,0.012048965999383654,None,95,4,1,1291.5045063402108,None,1291.5045063402108,None,space,0.28679136381379067,1291.5045063402108,None,1291.5045063402108,None,1291.5045063402108,None,1291.5045063402108,None,1293.5711505476256,None,0.011534274810401257,None,100,4,1293.9878143465112,None,1293.9878143465112,None,1293.9878143465112,None,1293.9878143465112,None,1296.0544781755843,None,,,,,,,083,001,cm,2020_Feb_17_1458,Neighborhood,3.2.4,59.99750060673399,
Faces\faces\F1.jpg,0.7,1,79,87,F1,0,3,3,0,19,0,19,0,,,,,,,,,,,,,,,,,,,,,,,,,,,,,,,,,,,,,,,,,,,,,,,,,,,,,,,,,,,,,,,,,,,,,,,,,,,,,,,,,,,,,,,,,,,,,,,0.011002075065334793,None,95,4,1,1299.0044631725627,None,1299.0044631725627,None,space,0.4096941858911123,1299.0044631725627,None,1299.0044631725627,None,1299.0044631725627,None,1299.0044631725627,None,1301.0711384727588,None,0.01151978497091477,None,100,4,1301.4878221951744,None,1301.4878221951744,None,1301.4878221951744,None,1301.4878221951744,None,1303.554464893231,None,,,,,,,083,001,cm,2020_Feb_17_1458,Neighborhood,3.2.4,59.99750060673399,
Faces\faces\F1.jpg,0.7,1,79,87,F1,0,3,3,0,20,0,20,0,,,,,,,,,,,,,,,,,,,,,,,,,,,,,,,,,,,,,,,,,,,,,,,,,,,,,,,,,,,,,,,,,,,,,,,,,,,,,,,,,,,,,,,,,,,,,,,0.01214375370182097,None,95,4,1,1306.5044589463591,None,1306.5044589463591,None,space,0.35870413739257856,1306.5044589463591,None,1306.5044589463591,None,1306.5044589463591,None,1306.5044589463591,None,1308.5711245866623,None,0.011536086040450755,None,100,4,1308.987788385548,None,1308.987788385548,None,1308.987788385548,None,1308.987788385548,None,1311.0544968916274,None,,,,,,,083,001,cm,2020_Feb_17_1458,Neighborhood,3.2.4,59.99750060673399,
Faces\faces\F1.jpg,0.7,1,79,87,F1,0,3,3,0,21,0,21,0,,,,,,,,,,,,,,,,,,,,,,,,,,,,,,,,,,,,,,,,,,,,,,,,,,,,,,,,,,,,,,,,,,,,,,,,,,,,,,,,,,,,,,,,,,,,,,,0.012472491944208741,None,95,4,0,1314.0044471733645,None,1314.0044471733645,None,space,0.21361344608840227,1314.0044471733645,None,1314.0044471733645,None,1314.0044471733645,None,1314.0044471733645,None,1316.0709636890651,None,0.011566876949927973,None,100,4,1316.4877802350134,None,1316.4877802350134,None,1316.4877802350134,None,1316.4877802350134,None,1318.5544793830709,None,,,,,,,083,001,cm,2020_Feb_17_1458,Neighborhood,3.2.4,59.99750060673399,
Faces\faces\F1.jpg,0.7,1,79,87,F1,0,3,3,0,22,0,22,0,,,,,,,,,,,,,,,,,,,,,,,,,,,,,,,,,,,,,,,,,,,,,,,,,,,,,,,,,,,,,,,,,,,,,,,,,,,,,,,,,,,,,,,,,,,,,,,0.012040211720432126,None,95,4,1,1321.5044341928829,None,1321.5044341928829,None,space,0.28860108444359867,1321.5044341928829,None,1321.5044341928829,None,1321.5044341928829,None,1321.5044341928829,None,1323.5711324353256,None,0.011592536041462154,None,100,4,1323.9877467272586,None,1323.9877467272586,None,1323.9877467272586,None,1323.9877467272586,None,1326.0544657988462,None,,,,,,,083,001,cm,2020_Feb_17_1458,Neighborhood,3.2.4,59.99750060673399,
Faces\faces\F1.jpg,0.7,1,79,87,F1,0,3,3,0,23,0,23,0,,,,,,,,,,,,,,,,,,,,,,,,,,,,,,,,,,,,,,,,,,,,,,,,,,,,,,,,,,,,,,,,,,,,,,,,,,,,,,,,,,,,,,,,,,,,,,,0.011995232841854886,None,95,4,1,1329.0044230236313,None,1329.0044230236313,None,space,0.2805646569863711,1329.0044230236313,None,1329.0044230236313,None,1329.0044230236313,None,1329.0044230236313,None,1331.0710660235595,None,0.011383640849544463,None,100,4,1331.4877560852801,None,1331.4877560852801,None,1331.4877560852801,None,1331.4877560852801,None,1333.5544531202363,None,,,,,,,083,001,cm,2020_Feb_17_1458,Neighborhood,3.2.4,59.99750060673399,
Faces\faces\F1.jpg,0.7,1,79,87,F1,0,3,3,0,24,0,24,0,,,,,,,,,,,,,,,,,,,,,,,,,,,,,,,,,,,,,,,,,,,,,,,,,,,,,,,,,,,,,,,,,,,,,,,,,,,,,,,,,,,,,,,,,,,,,,,0.012025118137898971,None,95,4,1,1336.5044840017076,None,1336.5044840017076,None,space,0.2974371699410767,1336.5044840017076,None,1336.5044840017076,None,1336.5044840017076,None,1336.5044840017076,None,1338.5710539486927,None,0.011516464382566483,None,100,4,1338.987719256937,None,1338.987719256937,None,1338.987719256937,None,1338.987719256937,None,1341.054468515691,None,,,,,,,083,001,cm,2020_Feb_17_1458,Neighborhood,3.2.4,59.99750060673399,
Faces\faces\F1.jpg,0.7,1,79,87,F1,0,3,3,0,25,0,25,0,,,,,,,,,,,,,,,,,,,,,,,,,,,,,,,,,,,,,,,,,,,,,,,,,,,,,,,,,,,,,,,,,,,,,,,,,,,,,,,,,,,,,,,,,,,,,,,0.013668809351202071,None,95,4,0,1344.0043979682828,None,1344.0043979682828,None,space,0.3864711987262126,1344.0043979682828,None,1344.0043979682828,None,1344.0043979682828,None,1344.0043979682828,None,1346.0711001350573,None,0.011475711707589653,None,100,4,1346.487723785012,None,1346.487723785012,None,1346.487723785012,None,1346.487723785012,None,1348.5543734261169,None,,,,,,,083,001,cm,2020_Feb_17_1458,Neighborhood,3.2.4,59.99750060673399,
Faces\faces\F1.jpg,0.7,1,79,87,F1,0,3,3,0,26,0,26,0,,,,,,,,,,,,,,,,,,,,,,,,,,,,,,,,,,,,,,,,,,,,,,,,,,,,,,,,,,,,,,,,,,,,,,,,,,,,,,,,,,,,,,,,,,,,,,,0.012914432061279513,None,95,4,1,1351.5043834784433,None,1351.5043834784433,None,space,0.47845572116239055,1351.5043834784433,None,1351.5043834784433,None,1351.5043834784433,None,1351.5043834784433,None,1353.5710696460192,None,0.011406583095777023,None,100,4,1353.987696616562,None,1353.987696616562,None,1353.987696616562,None,1353.987696616562,None,1356.0543655774536,None,,,,,,,083,001,cm,2020_Feb_17_1458,Neighborhood,3.2.4,59.99750060673399,
Faces\faces\F1.jpg,0.7,1,79,87,F1,0,3,3,0,27,0,27,0,,,,,,,,,,,,,,,,,,,,,,,,,,,,,,,,,,,,,,,,,,,,,,,,,,,,,,,,,,,,,,,,,,,,,,,,,,,,,,,,,,,,,,,,,,,,,,,0.012904168424029194,None,95,4,0,1359.0043768372661,None,1359.0043768372661,None,space,0.3303852546559938,1359.0043768372661,None,1359.0043768372661,None,1359.0043768372661,None,1359.0043768372661,None,1361.071075381581,None,0.011456693792752048,None,100,4,1361.4877050689684,None,1361.4877050689684,None,1361.4877050689684,None,1361.4877050689684,None,1363.554363766223,None,,,,,,,083,001,cm,2020_Feb_17_1458,Neighborhood,3.2.4,59.99750060673399,
Faces\faces\F1.jpg,0.7,1,79,87,F1,0,3,3,0,28,0,28,0,,,,,,,,,,,,,,,,,,,,,,,,,,,,,,,,,,,,,,,,,,,,,,,,,,,,,,,,,,,,,,,,,,,,,,,,,,,,,,,,,,,,,,,,,,,,,,,0.01291745077833184,None,95,4,0,1366.5043596305813,None,1366.5043596305813,None,space,0.31135949111740047,1366.5043596305813,None,1366.5043596305813,None,1366.5043596305813,None,1366.5043596305813,None,1368.5711034556462,None,0.011460316252851044,None,100,4,1368.9876833342087,None,1368.9876833342087,None,1368.9876833342087,None,1368.9876833342087,None,1371.0543338809284,None,,,,,,,083,001,cm,2020_Feb_17_1458,Neighborhood,3.2.4,59.99750060673399,
Faces\faces\F1.jpg,0.7,1,79,87,F1,0,3,3,0,29,0,29,0,,,,,,,,,,,,,,,,,,,,,,,,,,,,,,,,,,,,,,,,,,,,,,,,,,,,,,,,,,,,,,,,,,,,,,,,,,,,,,,,,,,,,,,,,,,,,,,0.012876396231149556,None,95,4,1,1374.0043548006352,None,1374.0043548006352,None,space,0.29328854765299184,1374.0043548006352,None,1374.0043548006352,None,1374.0043548006352,None,1374.0043548006352,None,1376.071002026766,None,0.011435260905273026,None,100,4,1376.487710502659,None,1376.487710502659,None,1376.487710502659,None,1376.487710502659,None,1378.5543384090033,None,,,,,,,083,001,cm,2020_Feb_17_1458,Neighborhood,3.2.4,59.99750060673399,
Faces\faces\F1.jpg,0.7,1,79,87,F1,0,3,3,0,30,0,30,0,,,,,,,,,,,,,,,,,,,,,,,,,,,,,,,,,,,,,,,,,,,,,,,,,,,,,,,,,,,,,,,,,,,,,,,,,,,,,,,,,,,,,,,,,,,,,,,0.012849831525272748,None,95,4,1,1381.5043357827199,None,1381.5043357827199,None,space,0.4242899827513611,1381.5043357827199,None,1381.5043357827199,None,1381.5043357827199,None,1381.5043357827199,None,1383.5710243652693,None,0.011387263310098206,None,100,4,1383.9876996352787,None,1383.9876996352787,None,1383.9876996352787,None,1383.9876996352787,None,1386.0543248247786,None,,,,,,,083,001,cm,2020_Feb_17_1458,Neighborhood,3.2.4,59.99750060673399,
Faces\faces\F1.jpg,0.7,1,79,87,F1,0,3,3,0,31,0,31,0,,,,,,,,,,,,,,,,,,,,,,,,,,,,,,,,,,,,,,,,,,,,,,,,,,,,,,,,,,,,,,,,,,,,,,,,,,,,,,,,,,,,,,,,,,,,,,,0.01309344195851736,None,95,4,1,1389.0043704979616,None,1389.0043704979616,None,space,0.2762098563507607,1389.0043704979616,None,1389.0043704979616,None,1389.0043704979616,None,1389.0043704979616,None,1391.0709993099217,None,0.011650193530840625,None,100,4,1391.4876890697706,None,1391.4876890697706,None,1391.4876890697706,None,1391.4876890697706,None,1393.5543245229073,None,,,,,,,083,001,cm,2020_Feb_17_1458,Neighborhood,3.2.4,59.99750060673399,
Faces\faces\F1.jpg,0.7,1,79,87,F1,0,3,3,0,32,0,32,0,,,,,,,,,,,,,,,,,,,,,,,,,,,,,,,,,,,,,,,,,,,,,,,,,,,,,,,,,,,,,,,,,,,,,,,,,,,,,,,,,,,,,,,,,,,,,,,0.013408897848421475,None,95,4,1,1396.5043125386019,None,1396.5043125386019,None,space,0.30718460599382524,1396.5043125386019,None,1396.5043125386019,None,1396.5043125386019,None,1396.5043125386019,None,1398.5709718396001,None,0.012107830972126976,None,100,4,1398.98770355961,None,1398.98770355961,None,1398.98770355961,None,1398.98770355961,None,1401.0543021844042,None,,,,,,,083,001,cm,2020_Feb_17_1458,Neighborhood,3.2.4,59.99750060673399,
Faces\faces\F1.jpg,0.7,1,79,87,F1,0,3,3,0,33,0,33,0,,,,,,,,,,,,,,,,,,,,,,,,,,,,,,,,,,,,,,,,,,,,,,,,,,,,,,,,,,,,,,,,,,,,,,,,,,,,,,,,,,,,,,,,,,,,,,,0.01282266307498503,None,95,4,1,1404.004305595554,None,1404.004305595554,None,space,0.4011904610970305,1404.004305595554,None,1404.004305595554,None,1404.004305595554,None,1404.004305595554,None,1406.0709579535032,None,0.010369352055931813,None,100,4,1406.4876238654906,None,1406.4876238654906,None,1406.4876238654906,None,1406.4876238654906,None,1408.5543447483087,None,,,,,,,083,001,cm,2020_Feb_17_1458,Neighborhood,3.2.4,59.99750060673399,
Faces\faces\F1.jpg,0.7,1,79,87,F1,0,3,3,0,34,0,34,0,,,,,,,,,,,,,,,,,,,,,,,,,,,,,,,,,,,,,,,,,,,,,,,,,,,,,,,,,,,,,,,,,,,,,,,,,,,,,,,,,,,,,,,,,,,,,,,0.01287066067015985,None,95,4,1,1411.5043234059822,None,1411.5043234059822,None,space,0.3930960742791285,1411.5043234059822,None,1411.5043234059822,None,1411.5043234059822,None,1411.5043234059822,None,1413.5709461805081,None,0.011340775073222176,None,100,4,1413.9876377515875,None,1413.9876377515875,None,1413.9876377515875,None,1413.9876377515875,None,1416.0542792421575,None,,,,,,,083,001,cm,2020_Feb_17_1458,Neighborhood,3.2.4,59.99750060673399,
Faces\faces\F1.jpg,0.7,1,79,87,F1,0,3,3,0,35,0,35,0,,,,,,,,,,,,,,,,,,,,,,,,,,,,,,,,,,,,,,,,,,,,,,,,,,,,,,,,,,,,,,,,,,,,,,,,,,,,,,,,,,,,,,,,,,,,,,,0.012845303449466883,None,95,4,1,1419.0043167648055,None,1419.0043167648055,None,space,0.34805682190744847,1419.0043167648055,None,1419.0043167648055,None,1419.0043167648055,None,1419.0043167648055,None,1421.070956444145,None,0.011366434164301609,None,100,4,1421.4875982063995,None,1421.4875982063995,None,1421.4875982063995,None,1421.4875982063995,None,1423.5542870908203,None,,,,,,,083,001,cm,2020_Feb_17_1458,Neighborhood,3.2.4,59.99750060673399,
Faces\faces\F1.jpg,0.7,1,79,87,F1,0,3,3,0,36,0,36,0,,,,,,,,,,,,,,,,,,,,,,,,,,,,,,,,,,,,,,,,,,,,,,,,,,,,,,,,,,,,,,,,,,,,,,,,,,,,,,,,,,,,,,,,,,,,,,,0.012846209065173753,None,95,4,1,1426.504334877105,None,1426.504334877105,None,space,0.4049994777624306,1426.504334877105,None,1426.504334877105,None,1426.504334877105,None,1426.504334877105,None,1428.5709126727534,None,0.011272853947957628,None,100,4,1428.987569528591,None,1428.987569528591,None,1428.987569528591,None,1428.987569528591,None,1431.0542342632789,None,,,,,,,083,001,cm,2020_Feb_17_1458,Neighborhood,3.2.4,59.99750060673399,
Faces\faces\F1.jpg,0.7,1,79,87,F1,0,3,3,0,37,0,37,0,,,,,,,,,,,,,,,,,,,,,,,,,,,,,,,,,,,,,,,,,,,,,,,,,,,,,,,,,,,,,,,,,,,,,,,,,,,,,,,,,,,,,,,,,,,,,,,0.012792174037713266,None,95,4,1,1434.0042458249636,None,1434.0042458249636,None,space,0.3730732286321654,1434.0042458249636,None,1434.0042458249636,None,1434.0042458249636,None,1434.0042458249636,None,1436.0709057297054,None,0.011278287638560869,None,100,4,1436.4875701323344,None,1436.4875701323344,None,1436.4875701323344,None,1436.4875701323344,None,1438.5542372819955,None,,,,,,,083,001,cm,2020_Feb_17_1458,Neighborhood,3.2.4,59.99750060673399,
Faces\faces\F1.jpg,0.7,1,79,87,F1,0,3,3,0,38,0,38,0,,,,,,,,,,,,,,,,,,,,,,,,,,,,,,,,,,,,,,,,,,,,,,,,,,,,,,,,,,,,,,,,,,,,,,,,,,,,,,,,,,,,,,,,,,,,,,,0.012750213874824112,None,95,4,1,1441.5042234864604,None,1441.5042234864604,None,space,0.3520059070251591,1441.5042234864604,None,1441.5042234864604,None,1441.5042234864604,None,1441.5042234864604,None,1443.570933200027,None,0.011289155018857855,None,100,4,1443.987578886613,None,1443.987578886613,None,1443.987578886613,None,1443.987578886613,None,1446.054242715686,None,,,,,,,083,001,cm,2020_Feb_17_1458,Neighborhood,3.2.4,59.99750060673399,
Faces\faces\F1.jpg,0.7,1,79,87,F1,0,3,3,0,39,0,39,0,,,,,,,,,,,,,,,,,,,,,,,,,,,,,,,,,,,,,,,,,,,,,,,,,,,,,,,,,,,,,,,,,,,,,,,,,,,,,,,,,,,,,,,,,,,,,,,0.011726265189281548,None,95,4,1,1449.0042210714873,None,1449.0042210714873,None,space,0.2790447331544783,1449.0042210714873,None,1449.0042210714873,None,1449.0042210714873,None,1449.0042210714873,None,1451.0708800706143,None,0.010305355262971716,None,100,4,1451.487548699446,None,1451.487548699446,None,1451.487548699446,None,1451.487548699446,None,1453.5542155472358,None,,,,,,,083,001,cm,2020_Feb_17_1458,Neighborhood,3.2.4,59.99750060673399,
,,,,,,,,,,,,,,,,,,,,,,,,,,,,,,,,,,,,,,,,,,,,,,,,,,,,,,,,,,,,,,,,,,,,,,,,,,,,,,,,,,,,,,,,,,,,,,,,,,,,,,,,,,,,,,,,,,,,,,,,,,,,,,,,,,,,,,,,,,,,,,,0.008325680885718612,None,87,4,1456.4875387376815,None,,,,,,,,
