faces,pgo,outcome,blockcode,blockend,face,block_loop.thisRepN,block_loop.thisTrialN,block_loop.thisN,block_loop.thisIndex,Cavb_trials.thisRepN,Cavb_trials.thisTrialN,Cavb_trials.thisN,Cavb_trials.thisIndex,p_port_2.started,p_port_2.stopped,Intro1.started,Intro1.stopped,p_port_2_start,p_port_2_end,text.started,text.stopped,text_2.started,text_2.stopped,text_3.started,text_3.stopped,text_8.started,text_8.stopped,text_21.started,text_21.stopped,image.started,image.stopped,empty.started,empty.stopped,fill.started,fill.stopped,mid.started,mid.stopped,text_9.started,text_9.stopped,cor.started,cor.stopped,text_14.started,text_14.stopped,text_17.started,text_17.stopped,text_22.started,text_22.stopped,image_2.started,image_2.stopped,empty1.started,empty1.stopped,fill1.started,fill1.stopped,mid1.started,mid1.stopped,text_10.started,text_10.stopped,text_15.started,text_15.stopped,corr.started,corr.stopped,text_18.started,text_18.stopped,text_23.started,text_23.stopped,empty22.started,empty22.stopped,fill22.started,fill22.stopped,mid22.started,mid22.stopped,image_22.started,image_22.stopped,text_25.started,text_25.stopped,text_26.started,text_26.stopped,neut.started,neut.stopped,text_27.started,text_27.stopped,text_24.started,text_24.stopped,image_4.started,image_4.stopped,empty3.started,empty3.stopped,fill3.started,fill3.stopped,mid3.started,mid3.stopped,text_12.started,text_12.stopped,neutral.started,neutral.stopped,text_13.started,text_13.stopped,text_20.started,text_20.stopped,blockstart_parport.started,blockstart_parport.stopped,blockstart_parport_start,blockstart_parport_end,text_6.started,text_6.stopped,image_6.started,image_6.stopped,decision_partport.started,decision_partport.stopped,decision_partport_start,decision_partport_end,obtained,image_5.started,image_5.stopped,emptymeter.started,emptymeter.stopped,key_resp_10.keys,key_resp_10.rt,key_resp_10.started,key_resp_10.stopped,fillmeter.started,fillmeter.stopped,midpoint.started,midpoint.stopped,polygon.started,polygon.stopped,text_7.started,text_7.stopped,feedback_parport.started,feedback_parport.stopped,feedback_parport_start,feedback_parport_end,correctimg.started,correctimg.stopped,incorrectimg.started,incorrectimg.stopped,neutralimg.started,neutralimg.stopped,text_4.started,text_4.stopped,text_5.started,text_5.stopped,p_port.started,p_port.stopped,p_port_start,p_port_end,text_end.started,text_end.stopped,participant,sequence #,participant initials,date,expName,psychopyVersion,frameRate,
Faces\faces\F1.jpg,0.7,1,79,87,F1,0,0,0,0,0,0,0,0,0.016457394702229067,1.0328399254376563,58.74688340993271,None,157,4,80.03006905295479,None,89.63000777317393,None,101.72993306013996,None,115.31318707690843,None,121.12982166979782,None,124.7959947776344,None,124.7959947776344,None,124.7959947776344,None,124.7959947776344,None,129.81308911981978,None,130.3130950063005,None,130.3130950063005,None,132.31305968741253,None,135.31306240424965,None,146.71250907499234,None,146.71250907499234,None,146.71250907499234,None,146.71250907499234,None,148.46298716294223,None,148.96296799414267,None,148.96296799414267,None,150.96296135298508,None,153.96294595757172,None,156.9962577071401,None,156.9962577071401,None,156.9962577071401,None,156.9962577071401,None,157.84625325454363,None,158.34625129238339,None,158.34625129238339,None,160.346236802583,None,163.34624706619252,None,165.64572196185873,None,165.64572196185873,None,165.64572196185873,None,165.64572196185873,None,167.3961689571115,None,167.8961697117884,None,167.8961697117884,None,169.8961793716553,None,0.002374214191149804,2.0047131094943325,79,4,172.94618850324878,None,172.94618850324878,None,0.010653323974111117,None,95,4,1,184.52898820439623,None,184.52898820439623,None,space,1.3365385979595885,184.52898820439623,None,184.52898820439623,None,184.52898820439623,None,184.52898820439623,None,186.59606873599114,None,0.00997200147867261,None,100,4,187.02944931211096,None,187.02944931211096,None,187.02944931211096,None,187.02944931211096,None,189.09605681209177,None,,,,,,,070,004,SK,2020_Feb_18_1553,Neighborhood,3.2.4,59.99451248967744,
Faces\faces\F1.jpg,0.7,1,79,87,F1,0,0,0,0,1,0,1,0,,,,,,,,,,,,,,,,,,,,,,,,,,,,,,,,,,,,,,,,,,,,,,,,,,,,,,,,,,,,,,,,,,,,,,,,,,,,,,,,,,,,,,,,,,,,,,,0.01257835435353627,None,95,4,0,192.0460615665579,None,192.0460615665579,None,space,1.4084324601717526,192.0460615665579,None,192.0460615665579,None,192.0460615665579,None,192.0460615665579,None,194.12933686522229,None,0.009510742829661467,None,100,4,194.5293341483848,None,194.5293341483848,None,194.5293341483848,None,194.5293341483848,None,196.61268249979184,None,,,,,,,070,004,SK,2020_Feb_18_1553,Neighborhood,3.2.4,59.99451248967744,
Faces\faces\F1.jpg,0.7,1,79,87,F1,0,0,0,0,2,0,2,0,,,,,,,,,,,,,,,,,,,,,,,,,,,,,,,,,,,,,,,,,,,,,,,,,,,,,,,,,,,,,,,,,,,,,,,,,,,,,,,,,,,,,,,,,,,,,,,0.0113509474977036,None,95,4,1,199.5459965133905,None,199.5459965133905,None,space,1.1164146799783339,199.5459965133905,None,199.5459965133905,None,199.5459965133905,None,199.5459965133905,None,201.6459981736807,None,0.00982287728220399,None,100,4,202.02929716920517,None,202.02929716920517,None,202.02929716920517,None,202.02929716920517,None,204.09594330865548,None,,,,,,,070,004,SK,2020_Feb_18_1553,Neighborhood,3.2.4,59.99451248967744,
Faces\faces\F1.jpg,0.7,1,79,87,F1,0,0,0,0,3,0,3,0,,,,,,,,,,,,,,,,,,,,,,,,,,,,,,,,,,,,,,,,,,,,,,,,,,,,,,,,,,,,,,,,,,,,,,,,,,,,,,,,,,,,,,,,,,,,,,,0.01131562860973645,None,95,4,1,207.04598791007265,None,207.04598791007265,None,space,0.8253942810551962,207.04598791007265,None,207.04598791007265,None,207.04598791007265,None,207.04598791007265,None,209.11260386243703,None,0.011461734096883447,None,100,4,209.52927317047397,None,209.52927317047397,None,209.52927317047397,None,209.52927317047397,None,211.59589938644604,None,,,,,,,070,004,SK,2020_Feb_18_1553,Neighborhood,3.2.4,59.99451248967744,
Faces\faces\F1.jpg,0.7,1,79,87,F1,0,0,0,0,4,0,4,0,,,,,,,,,,,,,,,,,,,,,,,,,,,,,,,,,,,,,,,,,,,,,,,,,,,,,,,,,,,,,,,,,,,,,,,,,,,,,,,,,,,,,,,,,,,,,,,0.01178926396460156,None,95,4,1,214.54590232968803,None,214.54590232968803,None,space,0.6573509324043698,214.54590232968803,None,214.54590232968803,None,214.54590232968803,None,214.54590232968803,None,216.61255812900345,None,0.010803655657582567,None,100,4,217.02924373806673,None,217.02924373806673,None,217.02924373806673,None,217.02924373806673,None,219.09586482223494,None,,,,,,,070,004,SK,2020_Feb_18_1553,Neighborhood,3.2.4,59.99451248967744,
Faces\faces\F1.jpg,0.7,1,79,87,F1,0,0,0,0,5,0,5,0,,,,,,,,,,,,,,,,,,,,,,,,,,,,,,,,,,,,,,,,,,,,,,,,,,,,,,,,,,,,,,,,,,,,,,,,,,,,,,,,,,,,,,,,,,,,,,,0.011375097165000625,None,95,4,0,222.04586685986396,None,222.04586685986396,None,space,0.6153549623777508,222.04586685986396,None,222.04586685986396,None,222.04586685986396,None,222.04586685986396,None,224.1125181311163,None,0.011878919603987015,None,100,4,224.5291961934072,None,224.5291961934072,None,224.5291961934072,None,224.5291961934072,None,226.59583659731106,None,,,,,,,070,004,SK,2020_Feb_18_1553,Neighborhood,3.2.4,59.99451248967744,
Faces\faces\F1.jpg,0.7,1,79,87,F1,0,0,0,0,6,0,6,0,,,,,,,,,,,,,,,,,,,,,,,,,,,,,,,,,,,,,,,,,,,,,,,,,,,,,,,,,,,,,,,,,,,,,,,,,,,,,,,,,,,,,,,,,,,,,,,0.011497354857056052,None,95,4,1,229.5458202208174,None,229.5458202208174,None,space,0.819279585230106,229.5458202208174,None,229.5458202208174,None,229.5458202208174,None,229.5458202208174,None,231.62912812153263,None,0.01065634268525173,None,100,4,232.02912902714525,None,232.02912902714525,None,232.02912902714525,None,232.02912902714525,None,234.12912646124278,None,,,,,,,070,004,SK,2020_Feb_18_1553,Neighborhood,3.2.4,59.99451248967744,
Faces\faces\F1.jpg,0.7,1,79,87,F1,0,0,0,0,7,0,7,0,,,,,,,,,,,,,,,,,,,,,,,,,,,,,,,,,,,,,,,,,,,,,,,,,,,,,,,,,,,,,,,,,,,,,,,,,,,,,,,,,,,,,,,,,,,,,,,0.011219633681321284,None,95,4,1,237.045782637897,None,237.045782637897,None,space,0.43131125148102,237.045782637897,None,237.045782637897,None,237.045782637897,None,237.045782637897,None,239.14575984664953,None,0.011673647431962308,None,100,4,239.529085406808,None,239.529085406808,None,239.529085406808,None,239.529085406808,None,241.61239964681045,None,,,,,,,070,004,SK,2020_Feb_18_1553,Neighborhood,3.2.4,59.99451248967744,
Faces\faces\F1.jpg,0.7,1,79,87,F1,0,0,0,0,8,0,8,0,,,,,,,,,,,,,,,,,,,,,,,,,,,,,,,,,,,,,,,,,,,,,,,,,,,,,,,,,,,,,,,,,,,,,,,,,,,,,,,,,,,,,,,,,,,,,,,0.011531466261658352,None,95,4,1,244.54576045038993,None,244.54576045038993,None,space,0.6782633370312396,244.54576045038993,None,244.54576045038993,None,244.54576045038993,None,244.54576045038993,None,246.64569932154518,None,0.010555819691944635,None,100,4,247.0290306172501,None,247.0290306172501,None,247.0290306172501,None,247.0290306172501,None,249.1123291599688,None,,,,,,,070,004,SK,2020_Feb_18_1553,Neighborhood,3.2.4,59.99451248967744,
Faces\faces\F1.jpg,0.7,1,79,87,F1,0,0,0,0,9,0,9,0,,,,,,,,,,,,,,,,,,,,,,,,,,,,,,,,,,,,,,,,,,,,,,,,,,,,,,,,,,,,,,,,,,,,,,,,,,,,,,,,,,,,,,,,,,,,,,,0.012050684115820331,None,95,4,1,252.04568000181098,None,252.04568000181098,None,space,0.5351910465105902,252.04568000181098,None,252.04568000181098,None,252.04568000181098,None,252.04568000181098,None,254.12898307259093,None,0.011577954370295629,None,100,4,254.52903831495678,None,254.52903831495678,None,254.52903831495678,None,254.52903831495678,None,256.59571252839487,None,,,,,,,070,004,SK,2020_Feb_18_1553,Neighborhood,3.2.4,59.99451248967744,
Faces\faces\F1.jpg,0.7,1,79,87,F1,0,0,0,0,10,0,10,0,,,,,,,,,,,,,,,,,,,,,,,,,,,,,,,,,,,,,,,,,,,,,,,,,,,,,,,,,,,,,,,,,,,,,,,,,,,,,,,,,,,,,,,,,,,,,,,0.01335204932729539,None,95,4,1,259.545619778577,None,259.545619778577,None,space,0.4521478865262907,259.545619778577,None,259.545619778577,None,259.545619778577,None,259.545619778577,None,261.61228252092224,None,0.011438791912951274,None,100,4,262.0289469990257,None,262.0289469990257,None,262.0289469990257,None,262.0289469990257,None,264.0955973646669,None,,,,,,,070,004,SK,2020_Feb_18_1553,Neighborhood,3.2.4,59.99451248967744,
Faces\faces\F1.jpg,0.7,1,79,87,F1,0,0,0,0,11,0,11,0,,,,,,,,,,,,,,,,,,,,,,,,,,,,,,,,,,,,,,,,,,,,,,,,,,,,,,,,,,,,,,,,,,,,,,,,,,,,,,,,,,,,,,,,,,,,,,,0.011868354125908809,None,95,4,0,267.0455858181067,None,267.0455858181067,None,space,0.44521059264843643,267.0455858181067,None,267.0455858181067,None,267.0455858181067,None,267.0455858181067,None,269.11222350517346,None,0.011466262161775376,None,100,4,269.52888737953435,None,269.52888737953435,None,269.52888737953435,None,269.52888737953435,None,271.59554016014226,None,,,,,,,070,004,SK,2020_Feb_18_1553,Neighborhood,3.2.4,59.99451248967744,
Faces\faces\F1.jpg,0.7,1,79,87,F1,0,0,0,0,12,0,12,0,,,,,,,,,,,,,,,,,,,,,,,,,,,,,,,,,,,,,,,,,,,,,,,,,,,,,,,,,,,,,,,,,,,,,,,,,,,,,,,,,,,,,,,,,,,,,,,0.013164285661332542,None,95,4,1,274.54554914079927,None,274.54554914079927,None,space,0.345193536944862,274.54554914079927,None,274.54554914079927,None,274.54554914079927,None,274.54554914079927,None,276.6121774698695,None,0.010066185184768983,None,100,4,277.02883923113404,None,277.02883923113404,None,277.02883923113404,None,277.02883923113404,None,279.1121622253904,None,,,,,,,070,004,SK,2020_Feb_18_1553,Neighborhood,3.2.4,59.99451248967744,
Faces\faces\F1.jpg,0.7,1,79,87,F1,0,0,0,0,13,0,13,0,,,,,,,,,,,,,,,,,,,,,,,,,,,,,,,,,,,,,,,,,,,,,,,,,,,,,,,,,,,,,,,,,,,,,,,,,,,,,,,,,,,,,,,,,,,,,,,0.0117841321589367,None,95,4,0,282.04548438950405,None,282.04548438950405,None,space,0.44716218765825033,282.04548438950405,None,282.04548438950405,None,282.04548438950405,None,282.04548438950405,None,284.11211030360573,None,0.011351249368090066,None,100,4,284.52878776215584,None,284.52878776215584,None,284.52878776215584,None,284.52878776215584,None,286.59542726044674,None,,,,,,,070,004,SK,2020_Feb_18_1553,Neighborhood,3.2.4,59.99451248967744,
Faces\faces\F1.jpg,0.7,1,79,87,F1,0,0,0,0,14,0,14,0,,,,,,,,,,,,,,,,,,,,,,,,,,,,,,,,,,,,,,,,,,,,,,,,,,,,,,,,,,,,,,,,,,,,,,,,,,,,,,,,,,,,,,,,,,,,,,,0.01211890692684392,None,95,4,1,289.5454437878743,None,289.5454437878743,None,space,0.338169002392533,289.5454437878743,None,289.5454437878743,None,289.5454437878743,None,289.5454437878743,None,291.61215301833,None,0.011650101501800236,None,100,4,292.0287507829762,None,292.0287507829762,None,292.0287507829762,None,292.0287507829762,None,294.0954086953898,None,,,,,,,070,004,SK,2020_Feb_18_1553,Neighborhood,3.2.4,59.99451248967744,
Faces\faces\F1.jpg,0.7,1,79,87,F1,0,0,0,0,15,0,15,0,,,,,,,,,,,,,,,,,,,,,,,,,,,,,,,,,,,,,,,,,,,,,,,,,,,,,,,,,,,,,,,,,,,,,,,,,,,,,,,,,,,,,,,,,,,,,,,0.01257322254787141,None,95,4,1,297.0454206947543,None,297.0454206947543,None,space,0.41204011863555934,297.0454206947543,None,297.0454206947543,None,297.0454206947543,None,297.0454206947543,None,299.1120472126004,None,0.010005509144320968,None,100,4,299.5287337272748,None,299.5287337272748,None,299.5287337272748,None,299.5287337272748,None,301.5953623582136,None,,,,,,,070,004,SK,2020_Feb_18_1553,Neighborhood,3.2.4,59.99451248967744,
Faces\faces\F1.jpg,0.7,1,79,87,F1,0,0,0,0,16,0,16,0,,,,,,,,,,,,,,,,,,,,,,,,,,,,,,,,,,,,,,,,,,,,,,,,,,,,,,,,,,,,,,,,,,,,,,,,,,,,,,,,,,,,,,,,,,,,,,,0.012981351928829099,None,95,4,0,304.5453474910755,None,304.5453474910755,None,space,0.4741083867265843,304.5453474910755,None,304.5453474910755,None,304.5453474910755,None,304.5453474910755,None,306.61200268665016,None,0.011537201809915132,None,100,4,307.0286756171372,None,307.0286756171372,None,307.0286756171372,None,307.0286756171372,None,309.09533051083963,None,,,,,,,070,004,SK,2020_Feb_18_1553,Neighborhood,3.2.4,59.99451248967744,
Faces\faces\F1.jpg,0.7,1,79,87,F1,0,0,0,0,17,0,17,0,,,,,,,,,,,,,,,,,,,,,,,,,,,,,,,,,,,,,,,,,,,,,,,,,,,,,,,,,,,,,,,,,,,,,,,,,,,,,,,,,,,,,,,,,,,,,,,0.012205241988340276,None,95,4,0,312.04532560543885,None,312.04532560543885,None,space,0.42403827722409915,312.04532560543885,None,312.04532560543885,None,312.04532560543885,None,312.04532560543885,None,314.1119388409661,None,0.010051997254777234,None,100,4,314.52858701804325,None,314.52858701804325,None,314.52858701804325,None,314.52858701804325,None,316.5952636464481,None,,,,,,,070,004,SK,2020_Feb_18_1553,Neighborhood,3.2.4,59.99451248967744,
Faces\faces\F1.jpg,0.7,1,79,87,F1,0,0,0,0,18,0,18,0,,,,,,,,,,,,,,,,,,,,,,,,,,,,,,,,,,,,,,,,,,,,,,,,,,,,,,,,,,,,,,,,,,,,,,,,,,,,,,,,,,,,,,,,,,,,,,,0.012610956400749274,None,95,4,1,319.5452505905341,None,319.5452505905341,None,space,0.6090374093455466,319.5452505905341,None,319.5452505905341,None,319.5452505905341,None,319.5452505905341,None,321.61189642811223,None,0.011388681352400454,None,100,4,322.02855577441187,None,322.02855577441187,None,322.02855577441187,None,322.02855577441187,None,324.0951880278026,None,,,,,,,070,004,SK,2020_Feb_18_1553,Neighborhood,3.2.4,59.99451248967744,
Faces\faces\F1.jpg,0.7,1,79,87,F1,0,0,0,0,19,0,19,0,,,,,,,,,,,,,,,,,,,,,,,,,,,,,,,,,,,,,,,,,,,,,,,,,,,,,,,,,,,,,,,,,,,,,,,,,,,,,,,,,,,,,,,,,,,,,,,0.01129057332764205,None,95,4,0,327.0451994234263,None,327.0451994234263,None,None,,327.0451994234263,None,327.0451994234263,None,327.0451994234263,None,327.0451994234263,None,329.1118485815841,None,0.009976227671359084,None,100,4,329.5285073241412,None,329.5285073241412,None,329.5285073241412,None,329.5285073241412,None,331.5952180639506,None,,,,,,,070,004,SK,2020_Feb_18_1553,Neighborhood,3.2.4,59.99451248967744,
Faces\faces\F1.jpg,0.7,1,79,87,F1,0,0,0,0,20,0,20,0,,,,,,,,,,,,,,,,,,,,,,,,,,,,,,,,,,,,,,,,,,,,,,,,,,,,,,,,,,,,,,,,,,,,,,,,,,,,,,,,,,,,,,,,,,,,,,,0.011540220517417765,None,95,4,1,334.54517089663204,None,334.54517089663204,None,space,0.34897839359473437,334.54517089663204,None,334.54517089663204,None,334.54517089663204,None,334.54517089663204,None,336.61180254628016,None,0.011261895599091076,None,100,4,337.0284827216674,None,337.0284827216674,None,337.0284827216674,None,337.0284827216674,None,339.0951146731859,None,,,,,,,070,004,SK,2020_Feb_18_1553,Neighborhood,3.2.4,59.99451248967744,
Faces\faces\F1.jpg,0.7,1,79,87,F1,0,0,0,0,21,0,21,0,,,,,,,,,,,,,,,,,,,,,,,,,,,,,,,,,,,,,,,,,,,,,,,,,,,,,,,,,,,,,,,,,,,,,,,,,,,,,,,,,,,,,,,,,,,,,,,0.011273970432739588,None,95,4,1,342.04509799482184,None,342.04509799482184,None,space,0.36395209309739585,342.04509799482184,None,342.04509799482184,None,342.04509799482184,None,342.04509799482184,None,344.111750171689,None,0.0098729878445738,None,100,4,344.5284200834667,None,344.5284200834667,None,344.5284200834667,None,344.5284200834667,None,346.5950556574371,None,,,,,,,070,004,SK,2020_Feb_18_1553,Neighborhood,3.2.4,59.99451248967744,
Faces\faces\F1.jpg,0.7,1,79,87,F1,0,0,0,0,22,0,22,0,,,,,,,,,,,,,,,,,,,,,,,,,,,,,,,,,,,,,,,,,,,,,,,,,,,,,,,,,,,,,,,,,,,,,,,,,,,,,,,,,,,,,,,,,,,,,,,0.01233866890106583,None,95,4,1,349.54507701479815,None,349.54507701479815,None,space,0.3178908284080535,349.54507701479815,None,349.54507701479815,None,349.54507701479815,None,349.54507701479815,None,351.61177477416277,None,0.011159863253851654,None,100,4,352.028371633196,None,352.028371633196,None,352.028371633196,None,352.028371633196,None,354.0950183763871,None,,,,,,,070,004,SK,2020_Feb_18_1553,Neighborhood,3.2.4,59.99451248967744,
Faces\faces\F1.jpg,0.7,1,79,87,F1,0,0,0,0,23,0,23,0,,,,,,,,,,,,,,,,,,,,,,,,,,,,,,,,,,,,,,,,,,,,,,,,,,,,,,,,,,,,,,,,,,,,,,,,,,,,,,,,,,,,,,,,,,,,,,,0.012598579698533285,None,95,4,1,357.04501165976035,None,357.04501165976035,None,space,0.8739686205262842,357.04501165976035,None,357.04501165976035,None,357.04501165976035,None,357.04501165976035,None,359.1116879862948,None,0.010659059520548908,None,100,4,359.5283195604752,None,359.5283195604752,None,359.5283195604752,None,359.5283195604752,None,361.5949626812162,None,,,,,,,070,004,SK,2020_Feb_18_1553,Neighborhood,3.2.4,59.99451248967744,
Faces\faces\F1.jpg,0.7,1,79,87,F1,0,0,0,0,24,0,24,0,,,,,,,,,,,,,,,,,,,,,,,,,,,,,,,,,,,,,,,,,,,,,,,,,,,,,,,,,,,,,,,,,,,,,,,,,,,,,,,,,,,,,,,,,,,,,,,0.011363927944330499,None,95,4,0,364.5449623038785,None,364.5449623038785,None,space,0.8969391805712803,364.5449623038785,None,364.5449623038785,None,364.5449623038785,None,364.5449623038785,None,366.61162021629025,None,0.009878723387373611,None,100,4,367.0282623559506,None,367.0282623559506,None,367.0282623559506,None,367.0282623559506,None,369.09495377602616,None,,,,,,,070,004,SK,2020_Feb_18_1553,Neighborhood,3.2.4,59.99451248967744,
Faces\faces\F1.jpg,0.7,1,79,87,F1,0,0,0,0,25,0,25,0,,,,,,,,,,,,,,,,,,,,,,,,,,,,,,,,,,,,,,,,,,,,,,,,,,,,,,,,,,,,,,,,,,,,,,,,,,,,,,,,,,,,,,,,,,,,,,,0.012517074570496334,None,95,4,1,372.0449624548128,None,372.0449624548128,None,space,0.584781483243205,372.0449624548128,None,372.0449624548128,None,372.0449624548128,None,372.0449624548128,None,374.11175077542975,None,0.010568800140390522,None,100,4,374.5282679405609,None,374.5282679405609,None,374.5282679405609,None,374.5282679405609,None,376.5948591395172,None,,,,,,,070,004,SK,2020_Feb_18_1553,Neighborhood,3.2.4,59.99451248967744,
Faces\faces\F1.jpg,0.7,1,79,87,F1,0,0,0,0,26,0,26,0,,,,,,,,,,,,,,,,,,,,,,,,,,,,,,,,,,,,,,,,,,,,,,,,,,,,,,,,,,,,,,,,,,,,,,,,,,,,,,,,,,,,,,,,,,,,,,,0.011260084374953294,None,95,4,1,379.54486057340364,None,379.54486057340364,None,space,0.6379659942504077,379.54486057340364,None,379.54486057340364,None,379.54486057340364,None,379.54486057340364,None,381.6115257307156,None,0.010759280643469538,None,100,4,382.0281850770134,None,382.0281850770134,None,382.0281850770134,None,382.0281850770134,None,384.0948315183341,None,,,,,,,070,004,SK,2020_Feb_18_1553,Neighborhood,3.2.4,59.99451248967744,
Faces\faces\F1.jpg,0.7,1,79,87,F1,0,0,0,0,27,0,27,0,,,,,,,,,,,,,,,,,,,,,,,,,,,,,,,,,,,,,,,,,,,,,,,,,,,,,,,,,,,,,,,,,,,,,,,,,,,,,,,,,,,,,,,,,,,,,,,0.011397435608159867,None,95,4,0,387.0448577056304,None,387.0448577056304,None,space,0.42381277970162046,387.0448577056304,None,387.0448577056304,None,387.0448577056304,None,387.0448577056304,None,389.1114775823153,None,0.010443523739013472,None,100,4,389.5281399473224,None,389.5281399473224,None,389.5281399473224,None,389.5281399473224,None,391.5947909167062,None,,,,,,,070,004,SK,2020_Feb_18_1553,Neighborhood,3.2.4,59.99451248967744,
Faces\faces\F1.jpg,0.7,1,79,87,F1,0,0,0,0,28,0,28,0,,,,,,,,,,,,,,,,,,,,,,,,,,,,,,,,,,,,,,,,,,,,,,,,,,,,,,,,,,,,,,,,,,,,,,,,,,,,,,,,,,,,,,,,,,,,,,,0.01115563706116518,None,95,4,1,394.5447654840864,None,394.5447654840864,None,space,0.6868600149427948,394.5447654840864,None,394.5447654840864,None,394.5447654840864,None,394.5447654840864,None,396.6114185665665,None,0.011657950146400253,None,100,4,397.0280727810605,None,397.0280727810605,None,397.0280727810605,None,397.0280727810605,None,399.09474035333915,None,,,,,,,070,004,SK,2020_Feb_18_1553,Neighborhood,3.2.4,59.99451248967744,
Faces\faces\F1.jpg,0.7,1,79,87,F1,0,0,0,0,29,0,29,0,,,,,,,,,,,,,,,,,,,,,,,,,,,,,,,,,,,,,,,,,,,,,,,,,,,,,,,,,,,,,,,,,,,,,,,,,,,,,,,,,,,,,,,,,,,,,,,0.011279404108790914,None,95,4,1,402.04471884504164,None,402.04471884504164,None,space,0.6928098892876733,402.04471884504164,None,402.04471884504164,None,402.04471884504164,None,402.04471884504164,None,404.1113737387459,None,0.011261291858318145,None,100,4,404.52803278317333,None,404.52803278317333,None,404.52803278317333,None,404.52803278317333,None,406.5947290331824,None,,,,,,,070,004,SK,2020_Feb_18_1553,Neighborhood,3.2.4,59.99451248967744,
Faces\faces\F1.jpg,0.7,1,79,87,F1,0,0,0,0,30,0,30,0,,,,,,,,,,,,,,,,,,,,,,,,,,,,,,,,,,,,,,,,,,,,,,,,,,,,,,,,,,,,,,,,,,,,,,,,,,,,,,,,,,,,,,,,,,,,,,,0.01179892383152037,None,95,4,0,409.5446797527675,None,409.5446797527675,None,space,0.5478104552967125,409.5446797527675,None,409.5446797527675,None,409.5446797527675,None,409.5446797527675,None,411.61130627061175,None,0.010567894525593147,None,100,4,412.0279650131688,None,412.0279650131688,None,412.0279650131688,None,412.0279650131688,None,414.0946214162268,None,,,,,,,070,004,SK,2020_Feb_18_1553,Neighborhood,3.2.4,59.99451248967744,
Faces\faces\F1.jpg,0.7,1,79,87,F1,0,0,0,0,31,0,31,0,,,,,,,,,,,,,,,,,,,,,,,,,,,,,,,,,,,,,,,,,,,,,,,,,,,,,,,,,,,,,,,,,,,,,,,,,,,,,,,,,,,,,,,,,,,,,,,0.013094553494738648,None,95,4,1,417.04463884926736,None,417.04463884926736,None,space,0.8807060759063461,417.04463884926736,None,417.04463884926736,None,417.04463884926736,None,417.04463884926736,None,419.111321515089,None,0.01166006324274349,None,100,4,419.52793195831146,None,419.52793195831146,None,419.52793195831146,None,419.52793195831146,None,421.5946049642662,None,,,,,,,070,004,SK,2020_Feb_18_1553,Neighborhood,3.2.4,59.99451248967744,
Faces\faces\F1.jpg,0.7,1,79,87,F1,0,0,0,0,32,0,32,0,,,,,,,,,,,,,,,,,,,,,,,,,,,,,,,,,,,,,,,,,,,,,,,,,,,,,,,,,,,,,,,,,,,,,,,,,,,,,,,,,,,,,,,,,,,,,,,0.01173522908356972,None,95,4,0,424.5446000588636,None,424.5446000588636,None,space,0.8587184073294338,424.5446000588636,None,424.5446000588636,None,424.5446000588636,None,424.5446000588636,None,426.6112329159969,None,0.011391700061722076,None,100,4,427.0278922622947,None,427.0278922622947,None,427.0278922622947,None,427.0278922622947,None,429.0945492690953,None,,,,,,,070,004,SK,2020_Feb_18_1553,Neighborhood,3.2.4,59.99451248967744,
Faces\faces\F1.jpg,0.7,1,79,87,F1,0,0,0,0,33,0,33,0,,,,,,,,,,,,,,,,,,,,,,,,,,,,,,,,,,,,,,,,,,,,,,,,,,,,,,,,,,,,,,,,,,,,,,,,,,,,,,,,,,,,,,,,,,,,,,,0.01298195567142102,None,95,4,1,432.04453259073125,None,432.04453259073125,None,space,0.35174926607578527,432.04453259073125,None,432.04453259073125,None,432.04453259073125,None,432.04453259073125,None,434.1111669572165,None,0.011533579359820578,None,100,4,434.5278646411134,None,434.5278646411134,None,434.5278646411134,None,434.5278646411134,None,436.59447908412403,None,,,,,,,070,004,SK,2020_Feb_18_1553,Neighborhood,3.2.4,59.99451248967744,
Faces\faces\F1.jpg,0.7,1,79,87,F1,0,0,0,0,34,0,34,0,,,,,,,,,,,,,,,,,,,,,,,,,,,,,,,,,,,,,,,,,,,,,,,,,,,,,,,,,,,,,,,,,,,,,,,,,,,,,,,,,,,,,,,,,,,,,,,0.011563464573555393,None,95,4,1,439.5444823292346,None,439.5444823292346,None,space,0.5087193884082808,439.5444823292346,None,439.5444823292346,None,439.5444823292346,None,439.5444823292346,None,441.61111609197906,None,0.010114182645338587,None,100,4,442.02779777672004,None,442.02779777672004,None,442.02779777672004,None,442.02779777672004,None,444.09449885666436,None,,,,,,,070,004,SK,2020_Feb_18_1553,Neighborhood,3.2.4,59.99451248967744,
Faces\faces\F1.jpg,0.7,1,79,87,F1,0,0,0,0,35,0,35,0,,,,,,,,,,,,,,,,,,,,,,,,,,,,,,,,,,,,,,,,,,,,,,,,,,,,,,,,,,,,,,,,,,,,,,,,,,,,,,,,,,,,,,,,,,,,,,,0.01285728301263589,None,95,4,0,447.0444510856032,None,447.0444510856032,None,space,0.8676332571121748,447.0444510856032,None,447.0444510856032,None,447.0444510856032,None,447.0444510856032,None,449.11108877266815,None,0.01140498237691645,None,100,4,449.52780396507296,None,449.52780396507296,None,449.52780396507296,None,449.52780396507296,None,451.5943836929364,None,,,,,,,070,004,SK,2020_Feb_18_1553,Neighborhood,3.2.4,59.99451248967744,
Faces\faces\F1.jpg,0.7,1,79,87,F1,0,0,0,0,36,0,36,0,,,,,,,,,,,,,,,,,,,,,,,,,,,,,,,,,,,,,,,,,,,,,,,,,,,,,,,,,,,,,,,,,,,,,,,,,,,,,,,,,,,,,,,,,,,,,,,0.012369157855573576,None,95,4,1,454.5443962960435,None,454.5443962960435,None,space,0.728586716173595,454.5443962960435,None,454.5443962960435,None,454.5443962960435,None,454.5443962960435,None,456.6110693019982,None,0.011195182143637794,None,100,4,457.0276981593415,None,457.0276981593415,None,457.0276981593415,None,457.0276981593415,None,459.0943557698829,None,,,,,,,070,004,SK,2020_Feb_18_1553,Neighborhood,3.2.4,59.99451248967744,
Faces\faces\F1.jpg,0.7,1,79,87,F1,0,0,0,0,37,0,37,0,,,,,,,,,,,,,,,,,,,,,,,,,,,,,,,,,,,,,,,,,,,,,,,,,,,,,,,,,,,,,,,,,,,,,,,,,,,,,,,,,,,,,,,,,,,,,,,0.011768133004807169,None,95,4,0,462.04439342827027,None,462.04439342827027,None,space,0.524571532070695,462.04439342827027,None,462.04439342827027,None,462.04439342827027,None,462.04439342827027,None,464.11097587297263,None,0.011232915996515658,None,100,4,464.52764850158746,None,464.52764850158746,None,464.52764850158746,None,464.52764850158746,None,466.594315168255,None,,,,,,,070,004,SK,2020_Feb_18_1553,Neighborhood,3.2.4,59.99451248967744,
Faces\faces\F1.jpg,0.7,1,79,87,F1,0,0,0,0,38,0,38,0,,,,,,,,,,,,,,,,,,,,,,,,,,,,,,,,,,,,,,,,,,,,,,,,,,,,,,,,,,,,,,,,,,,,,,,,,,,,,,,,,,,,,,,,,,,,,,,0.012321462263571448,None,95,4,1,469.54429154686113,None,469.54429154686113,None,space,0.9016236123370618,469.54429154686113,None,469.54429154686113,None,469.54429154686113,None,469.54429154686113,None,471.61094402559866,None,0.00988264770967362,None,100,4,472.0276438225901,None,472.0276438225901,None,472.0276438225901,None,472.0276438225901,None,474.0942736610141,None,,,,,,,070,004,SK,2020_Feb_18_1553,Neighborhood,3.2.4,59.99451248967744,
Faces\faces\F1.jpg,0.7,1,79,87,F1,0,0,0,0,39,0,39,0,,,,,,,,,,,,,,,,,,,,,,,,,,,,,,,,,,,,,,,,,,,,,,,,,,,,,,,,,,,,,,,,,,,,,,,,,,,,,,,,,,,,,,,,,,,,,,,0.01160089655786578,None,95,4,1,477.0443110175311,None,477.0443110175311,None,space,0.6545127427234547,477.0443110175311,None,477.0443110175311,None,477.0443110175311,None,477.0443110175311,None,479.1108967828113,None,0.011203332654986298,None,100,4,479.5275582422055,None,479.5275582422055,None,479.5275582422055,None,479.5275582422055,None,481.5942566053109,None,,,,,,,070,004,SK,2020_Feb_18_1553,Neighborhood,3.2.4,59.99451248967744,
Faces\faces\F2.jpg,0.3,-1,86,94,F2,0,1,1,3,0,0,0,0,,,,,,,,,,,,,,,,,,,,,,,,,,,,,,,,,,,,,,,,,,,,,,,,,,,,,,,,,,,,,,,,,,,,,,,,,,,,,,,,,,,,,,,0.0006562672151630977,2.0012213694371894,86,4,486.5941998535927,None,486.5941998535927,None,0.009860309268333367,None,95,4,0,490.87699397012875,None,490.87699397012875,None,space,1.4027213656645472,490.87699397012875,None,490.87699397012875,None,490.87699397012875,None,490.87699397012875,None,492.9441243104138,None,0.01004143177124206,None,100,4,493.3774508516526,None,493.3774508516526,None,493.3774508516526,None,493.3774508516526,None,495.4441247632203,None,0.007129887479095487,None,87,4,484.52752564015464,None,070,004,SK,2020_Feb_18_1553,Neighborhood,3.2.4,59.99451248967744,
Faces\faces\F2.jpg,0.3,-1,86,94,F2,0,1,1,3,1,0,1,0,,,,,,,,,,,,,,,,,,,,,,,,,,,,,,,,,,,,,,,,,,,,,,,,,,,,,,,,,,,,,,,,,,,,,,,,,,,,,,,,,,,,,,,,,,,,,,,0.012673745537540526,None,95,4,0,498.39411170730455,None,498.39411170730455,None,space,0.8625409978340031,498.39411170730455,None,498.39411170730455,None,498.39411170730455,None,498.39411170730455,None,500.46075875236784,None,0.010269948004861362,None,100,4,500.87742443795287,None,500.87742443795287,None,500.87742443795287,None,500.87742443795287,None,502.9940914819581,None,,,,,,,070,004,SK,2020_Feb_18_1553,Neighborhood,3.2.4,59.99451248967744,
Faces\faces\F2.jpg,0.3,-1,86,94,F2,0,1,1,3,2,0,2,0,,,,,,,,,,,,,,,,,,,,,,,,,,,,,,,,,,,,,,,,,,,,,,,,,,,,,,,,,,,,,,,,,,,,,,,,,,,,,,,,,,,,,,,,,,,,,,,0.011263404951023404,None,95,4,0,505.8940626532931,None,505.8940626532931,None,space,0.6145006678889331,505.8940626532931,None,505.8940626532931,None,505.8940626532931,None,505.8940626532931,None,507.96071301893426,None,0.009957511680113385,None,100,4,508.3774019485754,None,508.3774019485754,None,508.3774019485754,None,508.3774019485754,None,510.44401005229884,None,,,,,,,070,004,SK,2020_Feb_18_1553,Neighborhood,3.2.4,59.99451248967744,
Faces\faces\F2.jpg,0.3,-1,86,94,F2,0,1,1,3,3,0,3,0,,,,,,,,,,,,,,,,,,,,,,,,,,,,,,,,,,,,,,,,,,,,,,,,,,,,,,,,,,,,,,,,,,,,,,,,,,,,,,,,,,,,,,,,,,,,,,,0.012486887486375053,None,95,4,0,513.3940114861853,None,513.3940114861853,None,space,1.0654926909519418,513.3940114861853,None,513.3940114861853,None,513.3940114861853,None,513.3940114861853,None,515.4606739266601,None,0.011126355590022285,None,100,4,515.8773302542504,None,515.8773302542504,None,515.8773302542504,None,515.8773302542504,None,517.9440515595397,None,,,,,,,070,004,SK,2020_Feb_18_1553,Neighborhood,3.2.4,59.99451248967744,
Faces\faces\F2.jpg,0.3,-1,86,94,F2,0,1,1,3,4,0,4,0,,,,,,,,,,,,,,,,,,,,,,,,,,,,,,,,,,,,,,,,,,,,,,,,,,,,,,,,,,,,,,,,,,,,,,,,,,,,,,,,,,,,,,,,,,,,,,,0.011136619197714026,None,95,4,-1,520.8939841668744,None,520.8939841668744,None,None,,520.8939841668744,None,520.8939841668744,None,520.8939841668744,None,520.8939841668744,None,522.9606260801302,None,0.01065181462217879,None,100,4,523.3772866339132,None,523.3772866339132,None,523.3772866339132,None,523.3772866339132,None,525.4439351883284,None,,,,,,,070,004,SK,2020_Feb_18_1553,Neighborhood,3.2.4,59.99451248967744,
Faces\faces\F2.jpg,0.3,-1,86,94,F2,0,1,1,3,5,0,5,0,,,,,,,,,,,,,,,,,,,,,,,,,,,,,,,,,,,,,,,,,,,,,,,,,,,,,,,,,,,,,,,,,,,,,,,,,,,,,,,,,,,,,,,,,,,,,,,0.011283026557066478,None,95,4,0,528.3939317922814,None,528.3939317922814,None,space,0.7654472593894752,528.3939317922814,None,528.3939317922814,None,528.3939317922814,None,528.3939317922814,None,530.4605749130224,None,0.011996951105174958,None,100,4,530.8772348630628,None,530.8772348630628,None,530.8772348630628,None,530.8772348630628,None,532.943911793338,None,,,,,,,070,004,SK,2020_Feb_18_1553,Neighborhood,3.2.4,59.99451248967744,
Faces\faces\F2.jpg,0.3,-1,86,94,F2,0,1,1,3,6,0,6,0,,,,,,,,,,,,,,,,,,,,,,,,,,,,,,,,,,,,,,,,,,,,,,,,,,,,,,,,,,,,,,,,,,,,,,,,,,,,,,,,,,,,,,,,,,,,,,,0.011961934087594273,None,95,4,-1,535.8938767008531,None,535.8938767008531,None,space,0.7024607001894765,535.8938767008531,None,535.8938767008531,None,535.8938767008531,None,535.8938767008531,None,537.9605198215941,None,0.010544952341660974,None,100,4,538.3771939595645,None,538.3771939595645,None,538.3771939595645,None,538.3771939595645,None,540.4438410046259,None,,,,,,,070,004,SK,2020_Feb_18_1553,Neighborhood,3.2.4,59.99451248967744,
Faces\faces\F2.jpg,0.3,-1,86,94,F2,0,1,1,3,7,0,7,0,,,,,,,,,,,,,,,,,,,,,,,,,,,,,,,,,,,,,,,,,,,,,,,,,,,,,,,,,,,,,,,,,,,,,,,,,,,,,,,,,,,,,,,,,,,,,,,0.01215362207221915,None,95,4,-1,543.3938243262619,None,543.3938243262619,None,space,0.902372553902751,543.3938243262619,None,543.3938243262619,None,543.3938243262619,None,543.3938243262619,None,545.4604725788067,None,0.01187529715571145,None,100,4,545.8771877712115,None,545.8771877712115,None,545.8771877712115,None,545.8771877712115,None,547.9438547397494,None,,,,,,,070,004,SK,2020_Feb_18_1553,Neighborhood,3.2.4,59.99451248967744,
Faces\faces\F2.jpg,0.3,-1,86,94,F2,0,1,1,3,8,0,8,0,,,,,,,,,,,,,,,,,,,,,,,,,,,,,,,,,,,,,,,,,,,,,,,,,,,,,,,,,,,,,,,,,,,,,,,,,,,,,,,,,,,,,,,,,,,,,,,0.011860807355333236,None,95,4,0,550.8937776872153,None,550.8937776872153,None,None,,550.8937776872153,None,550.8937776872153,None,550.8937776872153,None,550.8937776872153,None,552.9604271472454,None,0.010440505029691849,None,100,4,553.3770982665064,None,553.3770982665064,None,553.3770982665064,None,553.3770982665064,None,555.443749839631,None,,,,,,,070,004,SK,2020_Feb_18_1553,Neighborhood,3.2.4,59.99451248967744,
Faces\faces\F2.jpg,0.3,-1,86,94,F2,0,1,1,3,9,0,9,0,,,,,,,,,,,,,,,,,,,,,,,,,,,,,,,,,,,,,,,,,,,,,,,,,,,,,,,,,,,,,,,,,,,,,,,,,,,,,,,,,,,,,,,,,,,,,,,0.011002588544215541,None,95,4,0,558.3937376893282,None,558.3937376893282,None,None,,558.3937376893282,None,558.3937376893282,None,558.3937376893282,None,558.3937376893282,None,560.460374470782,None,0.010734829103967058,None,100,4,560.8770634004231,None,560.8770634004231,None,560.8770634004231,None,560.8770634004231,None,562.9436980687806,None,,,,,,,070,004,SK,2020_Feb_18_1553,Neighborhood,3.2.4,59.99451248967744,
Faces\faces\F2.jpg,0.3,-1,86,94,F2,0,1,1,3,10,0,10,0,,,,,,,,,,,,,,,,,,,,,,,,,,,,,,,,,,,,,,,,,,,,,,,,,,,,,,,,,,,,,,,,,,,,,,,,,,,,,,,,,,,,,,,,,,,,,,,0.011221444905459066,None,95,4,-1,565.8937115775007,None,565.8937115775007,None,None,,565.8937115775007,None,565.8937115775007,None,565.8937115775007,None,565.8937115775007,None,567.9603616412714,None,0.010256967554596486,None,100,4,568.376997743515,None,568.376997743515,None,568.376997743515,None,568.376997743515,None,570.4436701457271,None,,,,,,,070,004,SK,2020_Feb_18_1553,Neighborhood,3.2.4,59.99451248967744,
Faces\faces\F2.jpg,0.3,-1,86,94,F2,0,1,1,3,11,0,11,0,,,,,,,,,,,,,,,,,,,,,,,,,,,,,,,,,,,,,,,,,,,,,,,,,,,,,,,,,,,,,,,,,,,,,,,,,,,,,,,,,,,,,,,,,,,,,,,0.012035288702463731,None,95,4,-1,573.3936616178762,None,573.3936616178762,None,space,1.4912181243253144,573.3936616178762,None,573.3936616178762,None,573.3936616178762,None,573.3936616178762,None,575.460285117013,None,0.010506312872166745,None,100,4,575.8769489913739,None,575.8769489913739,None,575.8769489913739,None,575.8769489913739,None,577.9436035832059,None,,,,,,,070,004,SK,2020_Feb_18_1553,Neighborhood,3.2.4,59.99451248967744,
Faces\faces\F2.jpg,0.3,-1,86,94,F2,0,1,1,3,12,0,12,0,,,,,,,,,,,,,,,,,,,,,,,,,,,,,,,,,,,,,,,,,,,,,,,,,,,,,,,,,,,,,,,,,,,,,,,,,,,,,,,,,,,,,,,,,,,,,,,0.012084795520422631,None,95,4,-1,580.8936053189645,None,580.8936053189645,None,None,,580.8936053189645,None,580.8936053189645,None,580.8936053189645,None,580.8936053189645,None,582.9602547789927,None,0.01113058178088977,None,100,4,583.376905672907,None,583.376905672907,None,583.376905672907,None,583.376905672907,None,585.4435361150718,None,,,,,,,070,004,SK,2020_Feb_18_1553,Neighborhood,3.2.4,59.99451248967744,
Faces\faces\F2.jpg,0.3,-1,86,94,F2,0,1,1,3,13,0,13,0,,,,,,,,,,,,,,,,,,,,,,,,,,,,,,,,,,,,,,,,,,,,,,,,,,,,,,,,,,,,,,,,,,,,,,,,,,,,,,,,,,,,,,,,,,,,,,,0.011915445977138006,None,95,4,-1,588.3935502275344,None,588.3935502275344,None,None,,588.3935502275344,None,588.3935502275344,None,588.3935502275344,None,588.3935502275344,None,590.4601936501458,None,0.010393715048849117,None,100,4,590.8768499777361,None,590.8768499777361,None,590.8768499777361,None,590.8768499777361,None,592.9435504539379,None,,,,,,,070,004,SK,2020_Feb_18_1553,Neighborhood,3.2.4,59.99451248967744,
Faces\faces\F2.jpg,0.3,-1,86,94,F2,0,1,1,3,14,0,14,0,,,,,,,,,,,,,,,,,,,,,,,,,,,,,,,,,,,,,,,,,,,,,,,,,,,,,,,,,,,,,,,,,,,,,,,,,,,,,,,,,,,,,,,,,,,,,,,0.012936675042510615,None,95,4,0,595.8935096259065,None,595.8935096259065,None,space,0.9642192487954162,595.8935096259065,None,595.8935096259065,None,595.8935096259065,None,595.8935096259065,None,597.9601530485179,None,0.010973910813845578,None,100,4,598.3768356388719,None,598.3768356388719,None,598.3768356388719,None,598.3768356388719,None,600.4434615529735,None,,,,,,,070,004,SK,2020_Feb_18_1553,Neighborhood,3.2.4,59.99451248967744,
Faces\faces\F2.jpg,0.3,-1,86,94,F2,0,1,1,3,15,0,15,0,,,,,,,,,,,,,,,,,,,,,,,,,,,,,,,,,,,,,,,,,,,,,,,,,,,,,,,,,,,,,,,,,,,,,,,,,,,,,,,,,,,,,,,,,,,,,,,0.01177507603460981,None,95,4,0,603.3934789860159,None,603.3934789860159,None,space,0.8471670175913459,603.3934789860159,None,603.3934789860159,None,603.3934789860159,None,603.3934789860159,None,605.460147765778,None,0.01036715041664138,None,100,4,605.8767769249916,None,605.8767769249916,None,605.8767769249916,None,605.8767769249916,None,607.943062630653,None,,,,,,,070,004,SK,2020_Feb_18_1553,Neighborhood,3.2.4,59.99451248967744,
Faces\faces\F2.jpg,0.3,-1,86,94,F2,0,1,1,3,16,0,16,0,,,,,,,,,,,,,,,,,,,,,,,,,,,,,,,,,,,,,,,,,,,,,,,,,,,,,,,,,,,,,,,,,,,,,,,,,,,,,,,,,,,,,,,,,,,,,,,0.0128726784241735,None,95,4,0,610.8934220833617,None,610.8934220833617,None,space,0.8511326948755595,610.8934220833617,None,610.8934220833617,None,610.8934220833617,None,610.8934220833617,None,612.9600558461061,None,0.011639234155154554,None,100,4,613.3767191167244,None,613.3767191167244,None,613.3767191167244,None,613.3767191167244,None,615.4433673692711,None,,,,,,,070,004,SK,2020_Feb_18_1553,Neighborhood,3.2.4,59.99451248967744,
Faces\faces\F2.jpg,0.3,-1,86,94,F2,0,1,1,3,17,0,17,0,,,,,,,,,,,,,,,,,,,,,,,,,,,,,,,,,,,,,,,,,,,,,,,,,,,,,,,,,,,,,,,,,,,,,,,,,,,,,,,,,,,,,,,,,,,,,,,0.012650803353608353,None,95,4,0,618.3933500871644,None,618.3933500871644,None,space,0.7041991743844846,618.3933500871644,None,618.3933500871644,None,618.3933500871644,None,618.3933500871644,None,620.4599838499089,None,0.011246198313529021,None,100,4,620.8766428943363,None,620.8766428943363,None,620.8766428943363,None,620.8766428943363,None,622.9433349181545,None,,,,,,,070,004,SK,2020_Feb_18_1553,Neighborhood,3.2.4,59.99451248967744,
Faces\faces\F2.jpg,0.3,-1,86,94,F2,0,1,1,3,18,0,18,0,,,,,,,,,,,,,,,,,,,,,,,,,,,,,,,,,,,,,,,,,,,,,,,,,,,,,,,,,,,,,,,,,,,,,,,,,,,,,,,,,,,,,,,,,,,,,,,0.011697193356667412,None,95,4,0,625.8933019387641,None,625.8933019387641,None,space,0.6211886164492171,625.8933019387641,None,625.8933019387641,None,625.8933019387641,None,625.8933019387641,None,627.9599571343388,None,0.010200517708653933,None,100,4,628.3766125563179,None,628.3766125563179,None,628.3766125563179,None,628.3766125563179,None,630.4432743930502,None,,,,,,,070,004,SK,2020_Feb_18_1553,Neighborhood,3.2.4,59.99451248967744,
Faces\faces\F2.jpg,0.3,-1,86,94,F2,0,1,1,3,19,0,19,0,,,,,,,,,,,,,,,,,,,,,,,,,,,,,,,,,,,,,,,,,,,,,,,,,,,,,,,,,,,,,,,,,,,,,,,,,,,,,,,,,,,,,,,,,,,,,,,0.012876904618678964,None,95,4,0,633.393254092236,None,633.393254092236,None,space,0.7180982136796956,633.393254092236,None,633.393254092236,None,633.393254092236,None,633.393254092236,None,635.4599126083904,None,0.011088017990914523,None,100,4,635.8765680303677,None,635.8765680303677,None,635.8765680303677,None,635.8765680303677,None,637.9432232259423,None,,,,,,,070,004,SK,2020_Feb_18_1553,Neighborhood,3.2.4,59.99451248967744,
Faces\faces\F2.jpg,0.3,-1,86,94,F2,0,1,1,3,20,0,20,0,,,,,,,,,,,,,,,,,,,,,,,,,,,,,,,,,,,,,,,,,,,,,,,,,,,,,,,,,,,,,,,,,,,,,,,,,,,,,,,,,,,,,,,,,,,,,,,0.012576543127579498,None,95,4,-1,640.8932065475783,None,640.8932065475783,None,space,0.5890765016192745,640.8932065475783,None,640.8932065475783,None,640.8932065475783,None,640.8932065475783,None,642.9598831759831,None,0.01043265638872981,None,100,4,643.3765129389376,None,643.3765129389376,None,643.3765129389376,None,643.3765129389376,None,645.443176888768,None,,,,,,,070,004,SK,2020_Feb_18_1553,Neighborhood,3.2.4,59.99451248967744,
Faces\faces\F2.jpg,0.3,-1,86,94,F2,0,1,1,3,21,0,21,0,,,,,,,,,,,,,,,,,,,,,,,,,,,,,,,,,,,,,,,,,,,,,,,,,,,,,,,,,,,,,,,,,,,,,,,,,,,,,,,,,,,,,,,,,,,,,,,0.012866641009168234,None,95,4,-1,648.393184963812,None,648.393184963812,None,None,,648.393184963812,None,648.393184963812,None,648.393184963812,None,648.393184963812,None,650.4764780728565,None,0.010707962599553866,None,100,4,650.8764717335689,None,650.8764717335689,None,650.8764717335689,None,650.8764717335689,None,652.9597772193156,None,,,,,,,070,004,SK,2020_Feb_18_1553,Neighborhood,3.2.4,59.99451248967744,
Faces\faces\F2.jpg,0.3,-1,86,94,F2,0,1,1,3,22,0,22,0,,,,,,,,,,,,,,,,,,,,,,,,,,,,,,,,,,,,,,,,,,,,,,,,,,,,,,,,,,,,,,,,,,,,,,,,,,,,,,,,,,,,,,,,,,,,,,,0.01147048835264286,None,95,4,0,655.8931235330965,None,655.8931235330965,None,space,0.6230559894938779,655.8931235330965,None,655.8931235330965,None,655.8931235330965,None,655.8931235330965,None,657.9764419992898,None,0.011061453356887796,None,100,4,658.3764356600022,None,658.3764356600022,None,658.3764356600022,None,658.3764356600022,None,660.4597396363952,None,,,,,,,070,004,SK,2020_Feb_18_1553,Neighborhood,3.2.4,59.99451248967744,
Faces\faces\F2.jpg,0.3,-1,86,94,F2,0,1,1,3,23,0,23,0,,,,,,,,,,,,,,,,,,,,,,,,,,,,,,,,,,,,,,,,,,,,,,,,,,,,,,,,,,,,,,,,,,,,,,,,,,,,,,,,,,,,,,,,,,,,,,,0.012761891824993654,None,95,4,-1,663.3930654229589,None,663.3930654229589,None,space,0.8481061377897277,663.3930654229589,None,663.3930654229589,None,663.3930654229589,None,663.3930654229589,None,665.4763826816688,None,0.009565683323671692,None,100,4,665.8763751348979,None,665.8763751348979,None,665.8763751348979,None,665.8763751348979,None,667.9593760329644,None,,,,,,,070,004,SK,2020_Feb_18_1553,Neighborhood,3.2.4,59.99451248967744,
Faces\faces\F2.jpg,0.3,-1,86,94,F2,0,1,1,3,24,0,24,0,,,,,,,,,,,,,,,,,,,,,,,,,,,,,,,,,,,,,,,,,,,,,,,,,,,,,,,,,,,,,,,,,,,,,,,,,,,,,,,,,,,,,,,,,,,,,,,0.012290671436858247,None,95,4,-1,670.8930172745586,None,670.8930172745586,None,None,,670.8930172745586,None,670.8930172745586,None,670.8930172745586,None,670.8930172745586,None,672.976346608104,None,0.00989230757659243,None,100,4,673.3763342313978,None,673.3763342313978,None,673.3763342313978,None,673.3763342313978,None,675.4596581312671,None,,,,,,,070,004,SK,2020_Feb_18_1553,Neighborhood,3.2.4,59.99451248967744,
Faces\faces\F2.jpg,0.3,-1,86,94,F2,0,1,1,3,25,0,25,0,,,,,,,,,,,,,,,,,,,,,,,,,,,,,,,,,,,,,,,,,,,,,,,,,,,,,,,,,,,,,,,,,,,,,,,,,,,,,,,,,,,,,,,,,,,,,,,0.012598579698533285,None,95,4,0,678.3929824084753,None,678.3929824084753,None,space,0.39604368071195495,678.3929824084753,None,678.3929824084753,None,678.3929824084753,None,678.3929824084753,None,680.4596158693494,None,0.011192465306521626,None,100,4,680.8762863848697,None,680.8762863848697,None,680.8762863848697,None,680.8762863848697,None,682.9429494290853,None,,,,,,,070,004,SK,2020_Feb_18_1553,Neighborhood,3.2.4,59.99451248967744,
Faces\faces\F2.jpg,0.3,-1,86,94,F2,0,1,1,3,26,0,26,0,,,,,,,,,,,,,,,,,,,,,,,,,,,,,,,,,,,,,,,,,,,,,,,,,,,,,,,,,,,,,,,,,,,,,,,,,,,,,,,,,,,,,,,,,,,,,,,0.011137826681078877,None,95,4,0,685.8929360713009,None,685.8929360713009,None,space,0.7650333944620797,685.8929360713009,None,685.8929360713009,None,685.8929360713009,None,685.8929360713009,None,687.9595897575218,None,0.010809693074406823,None,100,4,688.3762445757584,None,688.3762445757584,None,688.3762445757584,None,688.3762445757584,None,690.4428991675904,None,,,,,,,070,004,SK,2020_Feb_18_1553,Neighborhood,3.2.4,59.99451248967744,
Faces\faces\F2.jpg,0.3,-1,86,94,F2,0,1,1,3,27,0,27,0,,,,,,,,,,,,,,,,,,,,,,,,,,,,,,,,,,,,,,,,,,,,,,,,,,,,,,,,,,,,,,,,,,,,,,,,,,,,,,,,,,,,,,,,,,,,,,,0.01253397933760425,None,95,4,-1,693.3928846023227,None,693.3928846023227,None,space,0.6649764918074652,693.3928846023227,None,693.3928846023227,None,693.3928846023227,None,693.3928846023227,None,695.4595301380305,None,0.009340487673398457,None,100,4,695.8761879749745,None,695.8761879749745,None,695.8761879749745,None,695.8761879749745,None,697.9428476986122,None,,,,,,,070,004,SK,2020_Feb_18_1553,Neighborhood,3.2.4,59.99451248967744,
Faces\faces\F2.jpg,0.3,-1,86,94,F2,0,1,1,3,28,0,28,0,,,,,,,,,,,,,,,,,,,,,,,,,,,,,,,,,,,,,,,,,,,,,,,,,,,,,,,,,,,,,,,,,,,,,,,,,,,,,,,,,,,,,,,,,,,,,,,0.011072924447944388,None,95,4,0,700.8928367557928,None,700.8928367557928,None,space,0.37096576029944117,700.8928367557928,None,700.8928367557928,None,700.8928367557928,None,700.8928367557928,None,702.9594976869139,None,0.010758375028672162,None,100,4,703.3761389209612,None,703.3761389209612,None,703.3761389209612,None,703.3761389209612,None,705.44283849155,None,,,,,,,070,004,SK,2020_Feb_18_1553,Neighborhood,3.2.4,59.99451248967744,
Faces\faces\F2.jpg,0.3,-1,86,94,F2,0,1,1,3,29,0,29,0,,,,,,,,,,,,,,,,,,,,,,,,,,,,,,,,,,,,,,,,,,,,,,,,,,,,,,,,,,,,,,,,,,,,,,,,,,,,,,,,,,,,,,,,,,,,,,,0.011173749313456938,None,95,4,0,708.3927798531386,None,708.3927798531386,None,space,0.6969032579399936,708.3927798531386,None,708.3927798531386,None,708.3927798531386,None,708.3927798531386,None,710.4594383692929,None,0.011935067581362091,None,100,4,710.8760956024962,None,710.8760956024962,None,710.8760956024962,None,710.8760956024962,None,712.9427302708536,None,,,,,,,070,004,SK,2020_Feb_18_1553,Neighborhood,3.2.4,59.99451248967744,
Faces\faces\F2.jpg,0.3,-1,86,94,F2,0,1,1,3,30,0,30,0,,,,,,,,,,,,,,,,,,,,,,,,,,,,,,,,,,,,,,,,,,,,,,,,,,,,,,,,,,,,,,,,,,,,,,,,,,,,,,,,,,,,,,,,,,,,,,,0.011922690877327113,None,95,4,0,715.892739553381,None,715.892739553381,None,space,0.7039057559213688,715.892739553381,None,715.892739553381,None,715.892739553381,None,715.892739553381,None,717.9593811647683,None,0.010474616436113138,None,100,4,718.376029039975,None,718.376029039975,None,718.376029039975,None,718.376029039975,None,720.4427032534131,None,,,,,,,070,004,SK,2020_Feb_18_1553,Neighborhood,3.2.4,59.99451248967744,
Faces\faces\F2.jpg,0.3,-1,86,94,F2,0,1,1,3,31,0,31,0,,,,,,,,,,,,,,,,,,,,,,,,,,,,,,,,,,,,,,,,,,,,,,,,,,,,,,,,,,,,,,,,,,,,,,,,,,,,,,,,,,,,,,,,,,,,,,,0.012074531910911901,None,95,4,0,723.3926950274326,None,723.3926950274326,None,space,0.5088787762160791,723.3926950274326,None,723.3926950274326,None,723.3926950274326,None,723.3926950274326,None,725.5093228282276,None,0.011781717194025987,None,100,4,725.8759990038252,None,725.8759990038252,None,725.8759990038252,None,725.8759990038252,None,727.9426584255925,None,,,,,,,070,004,SK,2020_Feb_18_1553,Neighborhood,3.2.4,59.99451248967744,
Faces\faces\F2.jpg,0.3,-1,86,94,F2,0,1,1,3,32,0,32,0,,,,,,,,,,,,,,,,,,,,,,,,,,,,,,,,,,,,,,,,,,,,,,,,,,,,,,,,,,,,,,,,,,,,,,,,,,,,,,,,,,,,,,,,,,,,,,,0.011772359197493643,None,95,4,-1,730.8926547276733,None,730.8926547276733,None,space,0.6409083293710864,730.8926547276733,None,730.8926547276733,None,730.8926547276733,None,730.8926547276733,None,732.959315356924,None,0.010420883427286753,None,100,4,733.3759568928435,None,733.3759568928435,None,733.3759568928435,None,733.3759568928435,None,735.4426075603551,None,,,,,,,070,004,SK,2020_Feb_18_1553,Neighborhood,3.2.4,59.99451248967744,
Faces\faces\F2.jpg,0.3,-1,86,94,F2,0,1,1,3,33,0,33,0,,,,,,,,,,,,,,,,,,,,,,,,,,,,,,,,,,,,,,,,,,,,,,,,,,,,,,,,,,,,,,,,,,,,,,,,,,,,,,,,,,,,,,,,,,,,,,,0.012882036420705845,None,95,4,-1,738.3926017493413,None,738.3926017493413,None,None,,738.3926017493413,None,738.3926017493413,None,738.3926017493413,None,738.3926017493413,None,740.4592412476322,None,0.011660666983516421,None,100,4,740.8759087444432,None,740.8759087444432,None,740.8759087444432,None,740.8759087444432,None,742.9425627325345,None,,,,,,,070,004,SK,2020_Feb_18_1553,Neighborhood,3.2.4,59.99451248967744,
Faces\faces\F2.jpg,0.3,-1,86,94,F2,0,1,1,3,34,0,34,0,,,,,,,,,,,,,,,,,,,,,,,,,,,,,,,,,,,,,,,,,,,,,,,,,,,,,,,,,,,,,,,,,,,,,,,,,,,,,,,,,,,,,,,,,,,,,,,0.012633898586500436,None,95,4,-1,745.8925783543509,None,745.8925783543509,None,space,0.47379896911115793,745.8925783543509,None,745.8925783543509,None,745.8925783543509,None,745.8925783543509,None,747.9592474359833,None,0.011200917688256595,None,100,4,748.375892594353,None,748.375892594353,None,748.375892594353,None,748.375892594353,None,750.4425142822638,None,,,,,,,070,004,SK,2020_Feb_18_1553,Neighborhood,3.2.4,59.99451248967744,
Faces\faces\F2.jpg,0.3,-1,86,94,F2,0,1,1,3,35,0,35,0,,,,,,,,,,,,,,,,,,,,,,,,,,,,,,,,,,,,,,,,,,,,,,,,,,,,,,,,,,,,,,,,,,,,,,,,,,,,,,,,,,,,,,,,,,,,,,,0.011886164505995112,None,95,4,-1,753.3925057544129,None,753.3925057544129,None,None,,753.3925057544129,None,753.3925057544129,None,753.3925057544129,None,753.3925057544129,None,755.4591826846881,None,0.01039733749894367,None,100,4,755.8758130513852,None,755.8758130513852,None,755.8758130513852,None,755.8758130513852,None,757.9424821330194,None,,,,,,,070,004,SK,2020_Feb_18_1553,Neighborhood,3.2.4,59.99451248967744,
Faces\faces\F2.jpg,0.3,-1,86,94,F2,0,1,1,3,36,0,36,0,,,,,,,,,,,,,,,,,,,,,,,,,,,,,,,,,,,,,,,,,,,,,,,,,,,,,,,,,,,,,,,,,,,,,,,,,,,,,,,,,,,,,,,,,,,,,,,0.01229369014436088,None,95,4,0,760.8924766238761,None,760.8924766238761,None,space,0.5347638992661814,760.8924766238761,None,760.8924766238761,None,760.8924766238761,None,760.8924766238761,None,762.9590995192702,None,0.01006769453670131,None,100,4,763.3757639973737,None,763.3757639973737,None,763.3757639973737,None,763.3757639973737,None,765.4423938357959,None,,,,,,,070,004,SK,2020_Feb_18_1553,Neighborhood,3.2.4,59.99451248967744,
Faces\faces\F2.jpg,0.3,-1,86,94,F2,0,1,1,3,37,0,37,0,,,,,,,,,,,,,,,,,,,,,,,,,,,,,,,,,,,,,,,,,,,,,,,,,,,,,,,,,,,,,,,,,,,,,,,,,,,,,,,,,,,,,,,,,,,,,,,0.012782117173628649,None,95,4,-1,768.392426966122,None,768.392426966122,None,space,1.6586903333409282,768.392426966122,None,768.392426966122,None,768.392426966122,None,768.392426966122,None,770.4590516727403,None,0.010227384213067126,None,100,4,770.8757176601994,None,770.8757176601994,None,770.8757176601994,None,770.8757176601994,None,772.9423526304272,None,,,,,,,070,004,SK,2020_Feb_18_1553,Neighborhood,3.2.4,59.99451248967744,
Faces\faces\F2.jpg,0.3,-1,86,94,F2,0,1,1,3,38,0,38,0,,,,,,,,,,,,,,,,,,,,,,,,,,,,,,,,,,,,,,,,,,,,,,,,,,,,,,,,,,,,,,,,,,,,,,,,,,,,,,,,,,,,,,,,,,,,,,,0.01290286550829478,None,95,4,0,775.8923673466306,None,775.8923673466306,None,space,0.5137238032712048,775.8923673466306,None,775.8923673466306,None,775.8923673466306,None,775.8923673466306,None,777.9590092598883,None,0.011017983955753152,None,100,4,778.375666794962,None,778.375666794962,None,778.375666794962,None,778.375666794962,None,780.4423431214946,None,,,,,,,070,004,SK,2020_Feb_18_1553,Neighborhood,3.2.4,59.99451248967744,
Faces\faces\F2.jpg,0.3,-1,86,94,F2,0,1,1,3,39,0,39,0,,,,,,,,,,,,,,,,,,,,,,,,,,,,,,,,,,,,,,,,,,,,,,,,,,,,,,,,,,,,,,,,,,,,,,,,,,,,,,,,,,,,,,,,,,,,,,,0.011698098969645798,None,95,4,0,783.3923188963599,None,783.3923188963599,None,space,0.5346238311940397,783.3923188963599,None,783.3923188963599,None,783.3923188963599,None,783.3923188963599,None,785.4589680545178,None,0.011224463614780689,None,100,4,785.8756424943585,None,785.8756424943585,None,785.8756424943585,None,785.8756424943585,None,787.942276257103,None,,,,,,,070,004,SK,2020_Feb_18_1553,Neighborhood,3.2.4,59.99451248967744,
Faces\faces\M1.jpg,0.3,1,84,92,M1,0,2,2,1,0,0,0,0,,,,,,,,,,,,,,,,,,,,,,,,,,,,,,,,,,,,,,,,,,,,,,,,,,,,,,,,,,,,,,,,,,,,,,,,,,,,,,,,,,,,,,,0.0012986483725399012,None,84,4,792.942226750285,None,792.942226750285,None,0.010174254945013672,None,95,4,1,794.7917697932935,None,794.7917697932935,None,None,,794.7917697932935,None,794.7917697932935,None,794.7917697932935,None,794.7917697932935,None,796.8589285094367,None,0.009556023456752882,None,100,4,797.2922185243042,None,797.2922185243042,None,797.2922185243042,None,797.2922185243042,None,799.3588559094987,None,0.007206260801467579,None,94,4,790.8755990249574,None,070,004,SK,2020_Feb_18_1553,Neighborhood,3.2.4,59.99451248967744,
Faces\faces\M1.jpg,0.3,1,84,92,M1,0,2,2,1,1,0,1,0,,,,,,,,,,,,,,,,,,,,,,,,,,,,,,,,,,,,,,,,,,,,,,,,,,,,,,,,,,,,,,,,,,,,,,,,,,,,,,,,,,,,,,,,,,,,,,,0.012203128893816029,None,95,4,0,802.3088576452556,None,802.3088576452556,None,space,0.7170317039854126,802.3088576452556,None,802.3088576452556,None,802.3088576452556,None,802.3088576452556,None,804.375533066177,None,0.01183877078256046,None,100,4,804.7921637347463,None,804.7921637347463,None,804.7921637347463,None,804.7921637347463,None,806.8588116854189,None,,,,,,,070,004,SK,2020_Feb_18_1553,Neighborhood,3.2.4,59.99451248967744,
Faces\faces\M1.jpg,0.3,1,84,92,M1,0,2,2,1,2,0,2,0,,,,,,,,,,,,,,,,,,,,,,,,,,,,,,,,,,,,,,,,,,,,,,,,,,,,,,,,,,,,,,,,,,,,,,,,,,,,,,,,,,,,,,,,,,,,,,,0.011741870241166907,None,95,4,0,809.8088004407309,None,809.8088004407309,None,space,0.48094878006486397,809.8088004407309,None,809.8088004407309,None,809.8088004407309,None,809.8088004407309,None,811.8754378259255,None,0.010353264355217107,None,100,4,812.2921007946752,None,812.2921007946752,None,812.2921007946752,None,812.2921007946752,None,814.3587997615214,None,,,,,,,070,004,SK,2020_Feb_18_1553,Neighborhood,3.2.4,59.99451248967744,
Faces\faces\M1.jpg,0.3,1,84,92,M1,0,2,2,1,3,0,3,0,,,,,,,,,,,,,,,,,,,,,,,,,,,,,,,,,,,,,,,,,,,,,,,,,,,,,,,,,,,,,,,,,,,,,,,,,,,,,,,,,,,,,,,,,,,,,,,0.011073830062741763,None,95,4,0,817.3087613484568,None,817.3087613484568,None,space,0.522932977124583,817.3087613484568,None,817.3087613484568,None,817.3087613484568,None,817.3087613484568,None,819.3754014504884,None,0.010689850349081098,None,100,4,819.7920535518879,None,819.7920535518879,None,819.7920535518879,None,819.7920535518879,None,821.8587069362366,None,,,,,,,070,004,SK,2020_Feb_18_1553,Neighborhood,3.2.4,59.99451248967744,
Faces\faces\M1.jpg,0.3,1,84,92,M1,0,2,2,1,4,0,4,0,,,,,,,,,,,,,,,,,,,,,,,,,,,,,,,,,,,,,,,,,,,,,,,,,,,,,,,,,,,,,,,,,,,,,,,,,,,,,,,,,,,,,,,,,,,,,,,0.010702227051297086,None,95,4,1,824.8087276898568,None,824.8087276898568,None,None,,824.8087276898568,None,824.8087276898568,None,824.8087276898568,None,824.8087276898568,None,826.8753726218238,None,0.010214101897872752,None,100,4,827.2920364961847,None,827.2920364961847,None,827.2920364961847,None,827.2920364961847,None,829.358695012339,None,,,,,,,070,004,SK,2020_Feb_18_1553,Neighborhood,3.2.4,59.99451248967744,
Faces\faces\M1.jpg,0.3,1,84,92,M1,0,2,2,1,5,0,5,0,,,,,,,,,,,,,,,,,,,,,,,,,,,,,,,,,,,,,,,,,,,,,,,,,,,,,,,,,,,,,,,,,,,,,,,,,,,,,,,,,,,,,,,,,,,,,,,0.012040118634104147,None,95,4,1,832.3086653535283,None,832.3086653535283,None,None,,832.3086653535283,None,832.3086653535283,None,832.3086653535283,None,832.3086653535283,None,834.3753066630434,None,0.011571313214517431,None,100,4,834.7919892533973,None,834.7919892533973,None,834.7919892533973,None,834.7919892533973,None,836.8586369022014,None,,,,,,,070,004,SK,2020_Feb_18_1553,Neighborhood,3.2.4,59.99451248967744,
Faces\faces\M1.jpg,0.3,1,84,92,M1,0,2,2,1,6,0,6,0,,,,,,,,,,,,,,,,,,,,,,,,,,,,,,,,,,,,,,,,,,,,,,,,,,,,,,,,,,,,,,,,,,,,,,,,,,,,,,,,,,,,,,,,,,,,,,,0.011066585162552656,None,95,4,0,839.8086295818321,None,839.8086295818321,None,None,,839.8086295818321,None,839.8086295818321,None,839.8086295818321,None,839.8086295818321,None,841.875288701729,None,0.010138634186660056,None,100,4,842.291926917067,None,842.291926917067,None,842.291926917067,None,842.291926917067,None,844.3585911687678,None,,,,,,,070,004,SK,2020_Feb_18_1553,Neighborhood,3.2.4,59.99451248967744,
Faces\faces\M1.jpg,0.3,1,84,92,M1,0,2,2,1,7,0,7,0,,,,,,,,,,,,,,,,,,,,,,,,,,,,,,,,,,,,,,,,,,,,,,,,,,,,,,,,,,,,,,,,,,,,,,,,,,,,,,,,,,,,,,,,,,,,,,,0.011927822681172984,None,95,4,1,847.3085723773074,None,847.3085723773074,None,None,,847.3085723773074,None,847.3085723773074,None,847.3085723773074,None,847.3085723773074,None,849.3752275728821,None,0.010501181071958854,None,100,4,849.7919032202062,None,849.7919032202062,None,849.7919032202062,None,849.7919032202062,None,851.8585406054008,None,,,,,,,070,004,SK,2020_Feb_18_1553,Neighborhood,3.2.4,59.99451248967744,
Faces\faces\M1.jpg,0.3,1,84,92,M1,0,2,2,1,8,0,8,0,,,,,,,,,,,,,,,,,,,,,,,,,,,,,,,,,,,,,,,,,,,,,,,,,,,,,,,,,,,,,,,,,,,,,,,,,,,,,,,,,,,,,,,,,,,,,,,0.011986989367869683,None,95,4,0,854.8085272476164,None,854.8085272476164,None,None,,854.8085272476164,None,854.8085272476164,None,854.8085272476164,None,854.8085272476164,None,856.8751845562874,None,0.01171017380329431,None,100,4,857.2918695616081,None,857.2918695616081,None,857.2918695616081,None,857.2918695616081,None,859.3584978906765,None,,,,,,,070,004,SK,2020_Feb_18_1553,Neighborhood,3.2.4,59.99451248967744,
Faces\faces\M1.jpg,0.3,1,84,92,M1,0,2,2,1,9,0,9,0,,,,,,,,,,,,,,,,,,,,,,,,,,,,,,,,,,,,,,,,,,,,,,,,,,,,,,,,,,,,,,,,,,,,,,,,,,,,,,,,,,,,,,,,,,,,,,,0.012710271910691517,None,95,4,0,862.3084815141829,None,862.3084815141829,None,None,,862.3084815141829,None,862.3084815141829,None,862.3084815141829,None,862.3084815141829,None,864.3751333891796,None,0.010312813661585096,None,100,4,864.7917945467034,None,864.7917945467034,None,864.7917945467034,None,864.7917945467034,None,866.8584618171117,None,,,,,,,070,004,SK,2020_Feb_18_1553,Neighborhood,3.2.4,59.99451248967744,
Faces\faces\M1.jpg,0.3,1,84,92,M1,0,2,2,1,10,0,10,0,,,,,,,,,,,,,,,,,,,,,,,,,,,,,,,,,,,,,,,,,,,,,,,,,,,,,,,,,,,,,,,,,,,,,,,,,,,,,,,,,,,,,,,,,,,,,,,0.011842695104860468,None,95,4,0,869.8084448368754,None,869.8084448368754,None,None,,869.8084448368754,None,869.8084448368754,None,869.8084448368754,None,869.8084448368754,None,871.8750580724027,None,0.011638026669970714,None,100,4,872.2917442852067,None,872.2917442852067,None,872.2917442852067,None,872.2917442852067,None,874.358411555615,None,,,,,,,070,004,SK,2020_Feb_18_1553,Neighborhood,3.2.4,59.99451248967744,
Faces\faces\M1.jpg,0.3,1,84,92,M1,0,2,2,1,11,0,11,0,,,,,,,,,,,,,,,,,,,,,,,,,,,,,,,,,,,,,,,,,,,,,,,,,,,,,,,,,,,,,,,,,,,,,,,,,,,,,,,,,,,,,,,,,,,,,,,0.012647482775719254,None,95,4,1,877.308394877251,None,877.308394877251,None,None,,877.308394877251,None,877.308394877251,None,877.308394877251,None,877.308394877251,None,879.3750706000428,None,0.010209271964413347,None,100,4,879.7917387005964,None,879.7917387005964,None,879.7917387005964,None,879.7917387005964,None,881.8583667277944,None,,,,,,,070,004,SK,2020_Feb_18_1553,Neighborhood,3.2.4,59.99451248967744,
Faces\faces\M1.jpg,0.3,1,84,92,M1,0,2,2,1,12,0,12,0,,,,,,,,,,,,,,,,,,,,,,,,,,,,,,,,,,,,,,,,,,,,,,,,,,,,,,,,,,,,,,,,,,,,,,,,,,,,,,,,,,,,,,,,,,,,,,,0.011720437410986051,None,95,4,0,884.808350653173,None,884.808350653173,None,None,,884.808350653173,None,884.808350653173,None,884.808350653173,None,884.808350653173,None,886.8749850196582,None,0.011513957753777504,None,100,4,887.2916467809246,None,887.2916467809246,None,887.2916467809246,None,887.2916467809246,None,889.3583068064327,None,,,,,,,070,004,SK,2020_Feb_18_1553,Neighborhood,3.2.4,59.99451248967744,
Faces\faces\M1.jpg,0.3,1,84,92,M1,0,2,2,1,13,0,13,0,,,,,,,,,,,,,,,,,,,,,,,,,,,,,,,,,,,,,,,,,,,,,,,,,,,,,,,,,,,,,,,,,,,,,,,,,,,,,,,,,,,,,,,,,,,,,,,0.011296007003693376,None,95,4,1,892.3082910336798,None,892.3082910336798,None,None,,892.3082910336798,None,892.3082910336798,None,892.3082910336798,None,892.3082910336798,None,894.3749435124173,None,0.010074939438709407,None,100,4,894.7915980287835,None,894.7915980287835,None,894.7915980287835,None,894.7915980287835,None,896.8583087685929,None,,,,,,,070,004,SK,2020_Feb_18_1553,Neighborhood,3.2.4,59.99451248967744,
Faces\faces\M1.jpg,0.3,1,84,92,M1,0,2,2,1,14,0,14,0,,,,,,,,,,,,,,,,,,,,,,,,,,,,,,,,,,,,,,,,,,,,,,,,,,,,,,,,,,,,,,,,,,,,,,,,,,,,,,,,,,,,,,,,,,,,,,,0.011587010498260497,None,95,4,0,899.8082422815387,None,899.8082422815387,None,None,,899.8082422815387,None,899.8082422815387,None,899.8082422815387,None,899.8082422815387,None,901.8748983827263,None,0.011147788418384152,None,100,4,902.2915465598035,None,902.2915465598035,None,902.2915465598035,None,902.2915465598035,None,904.3582102077617,None,,,,,,,070,004,SK,2020_Feb_18_1553,Neighborhood,3.2.4,59.99451248967744,
Faces\faces\M1.jpg,0.3,1,84,92,M1,0,2,2,1,15,0,15,0,,,,,,,,,,,,,,,,,,,,,,,,,,,,,,,,,,,,,,,,,,,,,,,,,,,,,,,,,,,,,,,,,,,,,,,,,,,,,,,,,,,,,,,,,,,,,,,0.012896224352516583,None,95,4,1,907.3082022836516,None,907.3082022836516,None,None,,907.3082022836516,None,907.3082022836516,None,907.3082022836516,None,907.3082022836516,None,909.3748514418094,None,0.009818651091336505,None,100,4,909.7915023357255,None,909.7915023357255,None,909.7915023357255,None,909.7915023357255,None,911.858161757491,None,,,,,,,070,004,SK,2020_Feb_18_1553,Neighborhood,3.2.4,59.99451248967744,
Faces\faces\M1.jpg,0.3,1,84,92,M1,0,2,2,1,16,0,16,0,,,,,,,,,,,,,,,,,,,,,,,,,,,,,,,,,,,,,,,,,,,,,,,,,,,,,,,,,,,,,,,,,,,,,,,,,,,,,,,,,,,,,,,,,,,,,,,0.011520900783580146,None,95,4,1,914.8081665119571,None,914.8081665119571,None,None,,914.8081665119571,None,914.8081665119571,None,914.8081665119571,None,914.8081665119571,None,916.8748407253952,None,0.01098598564749409,None,100,4,917.2914490555213,None,917.2914490555213,None,917.2914490555213,None,917.2914490555213,None,919.3581166278,None,,,,,,,070,004,SK,2020_Feb_18_1553,Neighborhood,3.2.4,59.99451248967744,
Faces\faces\M1.jpg,0.3,1,84,92,M1,0,2,2,1,17,0,17,0,,,,,,,,,,,,,,,,,,,,,,,,,,,,,,,,,,,,,,,,,,,,,,,,,,,,,,,,,,,,,,,,,,,,,,,,,,,,,,,,,,,,,,,,,,,,,,,0.012757363761920715,None,95,4,1,922.3080993456952,None,922.3080993456952,None,None,,922.3080993456952,None,922.3080993456952,None,922.3080993456952,None,922.3080993456952,None,924.3747654086201,None,0.010830220291609294,None,100,4,924.7914223399512,None,924.7914223399512,None,924.7914223399512,None,924.7914223399512,None,926.858069686883,None,,,,,,,070,004,SK,2020_Feb_18_1553,Neighborhood,3.2.4,59.99451248967744,
Faces\faces\M1.jpg,0.3,1,84,92,M1,0,2,2,1,18,0,18,0,,,,,,,,,,,,,,,,,,,,,,,,,,,,,,,,,,,,,,,,,,,,,,,,,,,,,,,,,,,,,,,,,,,,,,,,,,,,,,,,,,,,,,,,,,,,,,,0.011452376102170092,None,95,4,1,929.8080521029078,None,929.8080521029078,None,None,,929.8080521029078,None,929.8080521029078,None,929.8080521029078,None,929.8080521029078,None,931.8747945391551,None,0.009940305040800013,None,100,4,932.29138415329,None,932.29138415329,None,932.29138415329,None,932.29138415329,None,934.3580215384845,None,,,,,,,070,004,SK,2020_Feb_18_1553,Neighborhood,3.2.4,59.99451248967744,
Faces\faces\M1.jpg,0.3,1,84,92,M1,0,2,2,1,19,0,19,0,,,,,,,,,,,,,,,,,,,,,,,,,,,,,,,,,,,,,,,,,,,,,,,,,,,,,,,,,,,,,,,,,,,,,,,,,,,,,,,,,,,,,,,,,,,,,,,0.012626653686311329,None,95,4,1,937.3080060676039,None,937.3080060676039,None,None,,937.3080060676039,None,937.3080060676039,None,937.3080060676039,None,937.3080060676039,None,939.3746612631785,None,0.01119155969354324,None,100,4,939.791310647739,None,939.791310647739,None,939.791310647739,None,939.791310647739,None,941.8580153501316,None,,,,,,,070,004,SK,2020_Feb_18_1553,Neighborhood,3.2.4,59.99451248967744,
Faces\faces\M1.jpg,0.3,1,84,92,M1,0,2,2,1,20,0,20,0,,,,,,,,,,,,,,,,,,,,,,,,,,,,,,,,,,,,,,,,,,,,,,,,,,,,,,,,,,,,,,,,,,,,,,,,,,,,,,,,,,,,,,,,,,,,,,,0.011196691493751132,None,95,4,1,944.8079552023664,None,944.8079552023664,None,None,,944.8079552023664,None,944.8079552023664,None,944.8079552023664,None,944.8079552023664,None,946.9079595794938,None,0.010848332542082062,None,100,4,947.2912703479815,None,947.2912703479815,None,947.2912703479815,None,947.2912703479815,None,949.357929769747,None,,,,,,,070,004,SK,2020_Feb_18_1553,Neighborhood,3.2.4,59.99451248967744,
Faces\faces\M1.jpg,0.3,1,84,92,M1,0,2,2,1,21,0,21,0,,,,,,,,,,,,,,,,,,,,,,,,,,,,,,,,,,,,,,,,,,,,,,,,,,,,,,,,,,,,,,,,,,,,,,,,,,,,,,,,,,,,,,,,,,,,,,,0.01051627461311,None,95,4,1,952.3079553533007,None,952.3079553533007,None,None,,952.3079553533007,None,952.3079553533007,None,952.3079553533007,None,952.3079553533007,None,954.3745942478508,None,0.011016474603820825,None,100,4,954.7912312557073,None,954.7912312557073,None,954.7912312557073,None,954.7912312557073,None,956.8578773951558,None,,,,,,,070,004,SK,2020_Feb_18_1553,Neighborhood,3.2.4,59.99451248967744,
Faces\faces\M1.jpg,0.3,1,84,92,M1,0,2,2,1,22,0,22,0,,,,,,,,,,,,,,,,,,,,,,,,,,,,,,,,,,,,,,,,,,,,,,,,,,,,,,,,,,,,,,,,,,,,,,,,,,,,,,,,,,,,,,,,,,,,,,,0.012071211333022802,None,95,4,1,959.8078691691753,None,959.8078691691753,None,None,,959.8078691691753,None,959.8078691691753,None,959.8078691691753,None,959.8078691691753,None,961.8745391564207,None,0.010758375028672162,None,100,4,962.2911846166608,None,962.2911846166608,None,962.2911846166608,None,962.2911846166608,None,964.3578343785612,None,,,,,,,070,004,SK,2020_Feb_18_1553,Neighborhood,3.2.4,59.99451248967744,
Faces\faces\M1.jpg,0.3,1,84,92,M1,0,2,2,1,23,0,23,0,,,,,,,,,,,,,,,,,,,,,,,,,,,,,,,,,,,,,,,,,,,,,,,,,,,,,,,,,,,,,,,,,,,,,,,,,,,,,,,,,,,,,,,,,,,,,,,0.012369157857392565,None,95,4,0,967.307813172134,None,967.307813172134,None,None,,967.307813172134,None,967.307813172134,None,967.307813172134,None,967.307813172134,None,969.3744716882884,None,0.011889786956089665,None,100,4,969.791152165546,None,969.791152165546,None,969.791152165546,None,969.791152165546,None,971.8577663066844,None,,,,,,,070,004,SK,2020_Feb_18_1553,Neighborhood,3.2.4,59.99451248967744,
Faces\faces\M1.jpg,0.3,1,84,92,M1,0,2,2,1,24,0,24,0,,,,,,,,,,,,,,,,,,,,,,,,,,,,,,,,,,,,,,,,,,,,,,,,,,,,,,,,,,,,,,,,,,,,,,,,,,,,,,,,,,,,,,,,,,,,,,,0.01091142354744079,None,95,4,1,974.807771363021,None,974.807771363021,None,None,,974.807771363021,None,974.807771363021,None,974.807771363021,None,974.807771363021,None,976.8744467839424,None,0.011655233309284085,None,100,4,977.2910970741159,None,977.2910970741159,None,977.2910970741159,None,977.2910970741159,None,979.357717252673,None,,,,,,,070,004,SK,2020_Feb_18_1553,Neighborhood,3.2.4,59.99451248967744,
Faces\faces\M1.jpg,0.3,1,84,92,M1,0,2,2,1,25,0,25,0,,,,,,,,,,,,,,,,,,,,,,,,,,,,,,,,,,,,,,,,,,,,,,,,,,,,,,,,,,,,,,,,,,,,,,,,,,,,,,,,,,,,,,,,,,,,,,,0.011071113223806606,None,95,4,1,982.3077204977835,None,982.3077204977835,None,None,,982.3077204977835,None,982.3077204977835,None,982.3077204977835,None,982.3077204977835,None,984.3744203702445,None,0.011791377060944797,None,100,4,984.7910341340448,None,984.7910341340448,None,984.7910341340448,None,984.7910341340448,None,986.8576881221361,None,,,,,,,070,004,SK,2020_Feb_18_1553,Neighborhood,3.2.4,59.99451248967744,
Faces\faces\M1.jpg,0.3,1,84,92,M1,0,2,2,1,26,0,26,0,,,,,,,,,,,,,,,,,,,,,,,,,,,,,,,,,,,,,,,,,,,,,,,,,,,,,,,,,,,,,,,,,,,,,,,,,,,,,,,,,,,,,,,,,,,,,,,0.011784434031142155,None,95,4,1,989.8076753680925,None,989.8076753680925,None,None,,989.8076753680925,None,989.8076753680925,None,989.8076753680925,None,989.8076753680925,None,991.8743830891945,None,0.0112797059755394,None,100,4,992.2909968529966,None,992.2909968529966,None,992.2909968529966,None,992.2909968529966,None,994.357652652312,None,,,,,,,070,004,SK,2020_Feb_18_1553,Neighborhood,3.2.4,59.99451248967744,
Faces\faces\M1.jpg,0.3,1,84,92,M1,0,2,2,1,27,0,27,0,,,,,,,,,,,,,,,,,,,,,,,,,,,,,,,,,,,,,,,,,,,,,,,,,,,,,,,,,,,,,,,,,,,,,,,,,,,,,,,,,,,,,,,,,,,,,,,0.01093074328127841,None,95,4,0,997.307613937377,None,997.307613937377,None,None,,997.307613937377,None,997.307613937377,None,997.307613937377,None,997.307613937377,None,999.3742803021723,None,0.011601500298638712,None,100,4,999.7909405540831,None,999.7909405540831,None,999.7909405540831,None,999.7909405540831,None,1001.8575857879205,None,,,,,,,070,004,SK,2020_Feb_18_1553,Neighborhood,3.2.4,59.99451248967744,
Faces\faces\M1.jpg,0.3,1,84,92,M1,0,2,2,1,28,0,28,0,,,,,,,,,,,,,,,,,,,,,,,,,,,,,,,,,,,,,,,,,,,,,,,,,,,,,,,,,,,,,,,,,,,,,,,,,,,,,,,,,,,,,,,,,,,,,,,0.01263238923093013,None,95,4,1,1004.8075944667071,None,1004.8075944667071,None,None,,1004.8075944667071,None,1004.8075944667071,None,1004.8075944667071,None,1004.8075944667071,None,1006.8744495007813,None,0.010203536419794546,None,100,4,1007.2908911981995,None,1007.2908911981995,None,1007.2908911981995,None,1007.2908911981995,None,1009.3575463937741,None,,,,,,,070,004,SK,2020_Feb_18_1553,Neighborhood,3.2.4,59.99451248967744,
Faces\faces\M1.jpg,0.3,1,84,92,M1,0,2,2,1,29,0,29,0,,,,,,,,,,,,,,,,,,,,,,,,,,,,,,,,,,,,,,,,,,,,,,,,,,,,,,,,,,,,,,,,,,,,,,,,,,,,,,,,,,,,,,,,,,,,,,,0.011927822681172984,None,95,4,0,1012.307530621023,None,1012.307530621023,None,None,,1012.307530621023,None,1012.307530621023,None,1012.307530621023,None,1012.307530621023,None,1014.3741565351265,None,0.010523519513299107,None,100,4,1014.7908228244542,None,1014.7908228244542,None,1014.7908228244542,None,1014.7908228244542,None,1016.8575414129064,None,,,,,,,070,004,SK,2020_Feb_18_1553,Neighborhood,3.2.4,59.99451248967744,
Faces\faces\M1.jpg,0.3,1,84,92,M1,0,2,2,1,30,0,30,0,,,,,,,,,,,,,,,,,,,,,,,,,,,,,,,,,,,,,,,,,,,,,,,,,,,,,,,,,,,,,,,,,,,,,,,,,,,,,,,,,,,,,,,,,,,,,,,0.013259978719361243,None,95,4,1,1019.8075014904862,None,1019.8075014904862,None,None,,1019.8075014904862,None,1019.8075014904862,None,1019.8075014904862,None,1019.8075014904862,None,1021.8741388756807,None,0.010119012580616982,None,100,4,1022.2907885621134,None,1022.2907885621134,None,1022.2907885621134,None,1022.2907885621134,None,1024.3574359090453,None,,,,,,,070,004,SK,2020_Feb_18_1553,Neighborhood,3.2.4,59.99451248967744,
Faces\faces\M1.jpg,0.3,1,84,92,M1,0,2,2,1,31,0,31,0,,,,,,,,,,,,,,,,,,,,,,,,,,,,,,,,,,,,,,,,,,,,,,,,,,,,,,,,,,,,,,,,,,,,,,,,,,,,,,,,,,,,,,,,,,,,,,,0.011811904276328278,None,95,4,1,1027.3074361354484,None,1027.3074361354484,None,None,,1027.3074361354484,None,1027.3074361354484,None,1027.3074361354484,None,1027.3074361354484,None,1029.3740855954766,None,0.010460428506121389,None,100,4,1029.7907497717097,None,1029.7907497717097,None,1029.7907497717097,None,1029.7907497717097,None,1031.857416136505,None,,,,,,,070,004,SK,2020_Feb_18_1553,Neighborhood,3.2.4,59.99451248967744,
Faces\faces\M1.jpg,0.3,1,84,92,M1,0,2,2,1,32,0,32,0,,,,,,,,,,,,,,,,,,,,,,,,,,,,,,,,,,,,,,,,,,,,,,,,,,,,,,,,,,,,,,,,,,,,,,,,,,,,,,,,,,,,,,,,,,,,,,,0.012399948678648798,None,95,4,0,1034.8073901001462,None,1034.8073901001462,None,None,,1034.8073901001462,None,1034.8073901001462,None,1034.8073901001462,None,1034.8073901001462,None,1036.8740591817786,None,0.009950870520697208,None,100,4,1037.2907007176964,None,1037.2907007176964,None,1037.2907007176964,None,1037.2907007176964,None,1039.3573685918473,None,,,,,,,070,004,SK,2020_Feb_18_1553,Neighborhood,3.2.4,59.99451248967744,
Faces\faces\M1.jpg,0.3,1,84,92,M1,0,2,2,1,33,0,33,0,,,,,,,,,,,,,,,,,,,,,,,,,,,,,,,,,,,,,,,,,,,,,,,,,,,,,,,,,,,,,,,,,,,,,,,,,,,,,,,,,,,,,,,,,,,,,,,0.012698197075224016,None,95,4,1,1042.3073618752223,None,1042.3073618752223,None,None,,1042.3073618752223,None,1042.3073618752223,None,1042.3073618752223,None,1042.3073618752223,None,1044.3739959398354,None,0.010214705638645682,None,100,4,1044.7906558898776,None,1044.7906558898776,None,1044.7906558898776,None,1044.7906558898776,None,1046.8573141041616,None,,,,,,,070,004,SK,2020_Feb_18_1553,Neighborhood,3.2.4,59.99451248967744,
Faces\faces\M1.jpg,0.3,1,84,92,M1,0,2,2,1,34,0,34,0,,,,,,,,,,,,,,,,,,,,,,,,,,,,,,,,,,,,,,,,,,,,,,,,,,,,,,,,,,,,,,,,,,,,,,,,,,,,,,,,,,,,,,,,,,,,,,,0.01180918743921211,None,95,4,1,1049.8072938033456,None,1049.8072938033456,None,None,,1049.8072938033456,None,1049.8072938033456,None,1049.8072938033456,None,1049.8072938033456,None,1051.8739254529955,None,0.010726980461186031,None,100,4,1052.2906149863793,None,1052.2906149863793,None,1052.2906149863793,None,1052.2906149863793,None,1054.357307312066,None,,,,,,,070,004,SK,2020_Feb_18_1553,Neighborhood,3.2.4,59.99451248967744,
Faces\faces\M1.jpg,0.3,1,84,92,M1,0,2,2,1,35,0,35,0,,,,,,,,,,,,,,,,,,,,,,,,,,,,,,,,,,,,,,,,,,,,,,,,,,,,,,,,,,,,,,,,,,,,,,,,,,,,,,,,,,,,,,,,,,,,,,,0.012563864547701087,None,95,4,1,1057.307263163455,None,1057.307263163455,None,None,,1057.307263163455,None,1057.307263163455,None,1057.307263163455,None,1057.307263163455,None,1059.3739002467792,None,0.010109050839673728,None,100,4,1059.7905807240368,None,1059.7905807240368,None,1059.7905807240368,None,1059.7905807240368,None,1061.8572271653557,None,,,,,,,070,004,SK,2020_Feb_18_1553,Neighborhood,3.2.4,59.99451248967744,
Faces\faces\M1.jpg,0.3,1,84,92,M1,0,2,2,1,36,0,36,0,,,,,,,,,,,,,,,,,,,,,,,,,,,,,,,,,,,,,,,,,,,,,,,,,,,,,,,,,,,,,,,,,,,,,,,,,,,,,,,,,,,,,,,,,,,,,,,0.012650199609197443,None,95,4,0,1064.807214411312,None,1064.807214411312,None,None,,1064.807214411312,None,1064.807214411312,None,1064.807214411312,None,1064.807214411312,None,1066.8738859079149,None,0.011454187322669895,None,100,4,1067.2904918230724,None,1067.2904918230724,None,1067.2904918230724,None,1067.2904918230724,None,1069.3571799225701,None,,,,,,,070,004,SK,2020_Feb_18_1553,Neighborhood,3.2.4,59.99451248967744,
Faces\faces\M1.jpg,0.3,1,84,92,M1,0,2,2,1,37,0,37,0,,,,,,,,,,,,,,,,,,,,,,,,,,,,,,,,,,,,,,,,,,,,,,,,,,,,,,,,,,,,,,,,,,,,,,,,,,,,,,,,,,,,,,,,,,,,,,,0.011460526613518596,None,95,4,1,1072.307170187234,None,1072.307170187234,None,None,,1072.307170187234,None,1072.307170187234,None,1072.307170187234,None,1072.307170187234,None,1074.3737994219173,None,0.010033583130280022,None,100,4,1074.7904620887948,None,1074.7904620887948,None,1074.7904620887948,None,1074.7904620887948,None,1076.8571420377793,None,,,,,,,070,004,SK,2020_Feb_18_1553,Neighborhood,3.2.4,59.99451248967744,
Faces\faces\M1.jpg,0.3,1,84,92,M1,0,2,2,1,38,0,38,0,,,,,,,,,,,,,,,,,,,,,,,,,,,,,,,,,,,,,,,,,,,,,,,,,,,,,,,,,,,,,,,,,,,,,,,,,,,,,,,,,,,,,,,,,,,,,,,0.012507716572145,None,95,4,0,1079.8071244538023,None,1079.8071244538023,None,None,,1079.8071244538023,None,1079.8071244538023,None,1079.8071244538023,None,1079.8071244538023,None,1081.8737364818462,None,0.011335552077071043,None,100,4,1082.2904175628446,None,1082.2904175628446,None,1082.2904175628446,None,1082.2904175628446,None,1084.3570525330742,None,,,,,,,070,004,SK,2020_Feb_18_1553,Neighborhood,3.2.4,59.99451248967744,
Faces\faces\M1.jpg,0.3,1,84,92,M1,0,2,2,1,39,0,39,0,,,,,,,,,,,,,,,,,,,,,,,,,,,,,,,,,,,,,,,,,,,,,,,,,,,,,,,,,,,,,,,,,,,,,,,,,,,,,,,,,,,,,,,,,,,,,,,0.012184714767499827,None,95,4,1,1087.3070609099905,None,1087.3070609099905,None,None,,1087.3070609099905,None,1087.3070609099905,None,1087.3070609099905,None,1087.3070609099905,None,1089.3737049363426,None,0.009873289709503297,None,100,4,1089.7903899416615,None,1089.7903899416615,None,1089.7903899416615,None,1089.7903899416615,None,1091.8570864935446,None,,,,,,,070,004,SK,2020_Feb_18_1553,Neighborhood,3.2.4,59.99451248967744,
Faces\faces\M2.jpg,0.7,-1,85,93,M2,0,3,3,2,0,0,0,0,,,,,,,,,,,,,,,,,,,,,,,,,,,,,,,,,,,,,,,,,,,,,,,,,,,,,,,,,,,,,,,,,,,,,,,,,,,,,,,,,,,,,,,0.016334835141606163,2.015974703223037,85,4,1096.856988385518,None,1096.856988385518,None,0.00993607884447556,None,95,4,0,1099.2898322352758,None,1099.2898322352758,None,None,,1099.2898322352758,None,1099.2898322352758,None,1099.2898322352758,None,1099.2898322352758,None,1101.3569604624663,None,0.009486593160545453,None,100,4,1101.7902963616998,None,1101.7902963616998,None,1101.7902963616998,None,1101.7902963616998,None,1103.85696363211,None,0.006963254771108041,None,92,4,1094.790343755425,None,070,004,SK,2020_Feb_18_1553,Neighborhood,3.2.4,59.99451248967744,
Faces\faces\M2.jpg,0.7,-1,85,93,M2,0,3,3,2,1,0,1,0,,,,,,,,,,,,,,,,,,,,,,,,,,,,,,,,,,,,,,,,,,,,,,,,,,,,,,,,,,,,,,,,,,,,,,,,,,,,,,,,,,,,,,,,,,,,,,,0.011249217022850644,None,95,4,0,1106.8069683865742,None,1106.8069683865742,None,space,0.7040446165119647,1106.8069683865742,None,1106.8069683865742,None,1106.8069683865742,None,1106.8069683865742,None,1108.8736118091856,None,0.010547971047344618,None,100,4,1109.2902883621227,None,1109.2902883621227,None,1109.2902883621227,None,1109.2902883621227,None,1111.356914879967,None,,,,,,,070,004,SK,2020_Feb_18_1553,Neighborhood,3.2.4,59.99451248967744,
Faces\faces\M2.jpg,0.7,-1,85,93,M2,0,3,3,2,2,0,2,0,,,,,,,,,,,,,,,,,,,,,,,,,,,,,,,,,,,,,,,,,,,,,,,,,,,,,,,,,,,,,,,,,,,,,,,,,,,,,,,,,,,,,,,,,,,,,,,0.012481755678891204,None,95,4,-1,1114.3069148045015,None,1114.3069148045015,None,space,0.4630245949301752,1114.3069148045015,None,1114.3069148045015,None,1114.3069148045015,None,1114.3069148045015,None,1116.3735470578922,None,0.010353264351579128,None,100,4,1116.790195536838,None,1116.790195536838,None,1116.790195536838,None,1116.790195536838,None,1118.8568588829276,None,,,,,,,070,004,SK,2020_Feb_18_1553,Neighborhood,3.2.4,59.99451248967744,
Faces\faces\M2.jpg,0.7,-1,85,93,M2,0,3,3,2,3,0,3,0,,,,,,,,,,,,,,,,,,,,,,,,,,,,,,,,,,,,,,,,,,,,,,,,,,,,,,,,,,,,,,,,,,,,,,,,,,,,,,,,,,,,,,,,,,,,,,,0.011150203386932844,None,95,4,0,1121.806874504744,None,1121.806874504744,None,None,,1121.806874504744,None,1121.806874504744,None,1121.806874504744,None,1121.806874504744,None,1123.8735481144377,None,0.010744187100499403,None,100,4,1124.290152520245,None,1124.290152520245,None,1124.290152520245,None,1124.290152520245,None,1126.3568197906516,None,,,,,,,070,004,SK,2020_Feb_18_1553,Neighborhood,3.2.4,59.99451248967744,
Faces\faces\M2.jpg,0.7,-1,85,93,M2,0,3,3,2,4,0,4,0,,,,,,,,,,,,,,,,,,,,,,,,,,,,,,,,,,,,,,,,,,,,,,,,,,,,,,,,,,,,,,,,,,,,,,,,,,,,,,,,,,,,,,,,,,,,,,,0.012437078796210699,None,95,4,0,1129.3068369218217,None,1129.3068369218217,None,None,,1129.3068369218217,None,1129.3068369218217,None,1129.3068369218217,None,1129.3068369218217,None,1131.3734480442527,None,0.011760586232412606,None,100,4,1131.7900841464962,None,1131.7900841464962,None,1131.7900841464962,None,1131.7900841464962,None,1133.856806055528,None,,,,,,,070,004,SK,2020_Feb_18_1553,Neighborhood,3.2.4,59.99451248967744,
Faces\faces\M2.jpg,0.7,-1,85,93,M2,0,3,3,2,5,0,5,0,,,,,,,,,,,,,,,,,,,,,,,,,,,,,,,,,,,,,,,,,,,,,,,,,,,,,,,,,,,,,,,,,,,,,,,,,,,,,,,,,,,,,,,,,,,,,,,0.011939595642616041,None,95,4,-1,1136.8067468133759,None,1136.8067468133759,None,None,,1136.8067468133759,None,1136.8067468133759,None,1136.8067468133759,None,1136.8067468133759,None,1138.8734427615145,None,0.010278098510752898,None,100,4,1139.2900839955637,None,1139.2900839955637,None,1139.2900839955637,None,1139.2900839955637,None,1141.3567286256566,None,,,,,,,070,004,SK,2020_Feb_18_1553,Neighborhood,3.2.4,59.99451248967744,
Faces\faces\M2.jpg,0.7,-1,85,93,M2,0,3,3,2,6,0,6,0,,,,,,,,,,,,,,,,,,,,,,,,,,,,,,,,,,,,,,,,,,,,,,,,,,,,,,,,,,,,,,,,,,,,,,,,,,,,,,,,,,,,,,,,,,,,,,,0.011099489081971115,None,95,4,-1,1144.3067312670264,None,1144.3067312670264,None,space,0.7719552929302154,1144.3067312670264,None,1144.3067312670264,None,1144.3067312670264,None,1144.3067312670264,None,1146.373344804424,None,0.01176481242509908,None,100,4,1146.7900264891668,None,1146.7900264891668,None,1146.7900264891668,None,1146.7900264891668,None,1148.8567139849201,None,,,,,,,070,004,SK,2020_Feb_18_1553,Neighborhood,3.2.4,59.99451248967744,
Faces\faces\M2.jpg,0.7,-1,85,93,M2,0,3,3,2,7,0,7,0,,,,,,,,,,,,,,,,,,,,,,,,,,,,,,,,,,,,,,,,,,,,,,,,,,,,,,,,,,,,,,,,,,,,,,,,,,,,,,,,,,,,,,,,,,,,,,,0.011836959558422677,None,95,4,-1,1151.8066490072215,None,1151.8066490072215,None,None,,1151.8066490072215,None,1151.8066490072215,None,1151.8066490072215,None,1151.8066490072215,None,1153.8733292580746,None,0.010360811127611669,None,100,4,1154.289987698763,None,1154.289987698763,None,1154.289987698763,None,1154.289987698763,None,1156.3566296120207,None,,,,,,,070,004,SK,2020_Feb_18_1553,Neighborhood,3.2.4,59.99451248967744,
Faces\faces\M2.jpg,0.7,-1,85,93,M2,0,3,3,2,8,0,8,0,,,,,,,,,,,,,,,,,,,,,,,,,,,,,,,,,,,,,,,,,,,,,,,,,,,,,,,,,,,,,,,,,,,,,,,,,,,,,,,,,,,,,,,,,,,,,,,0.010924403992248699,None,95,4,-1,1159.3066053868843,None,1159.3066053868843,None,space,0.44889764314575586,1159.3066053868843,None,1159.3066053868843,None,1159.3066053868843,None,1159.3066053868843,None,1161.3732300935026,None,0.011703230775310658,None,100,4,1161.789899099671,None,1161.789899099671,None,1161.789899099671,None,1161.789899099671,None,1163.8565920290985,None,,,,,,,070,004,SK,2020_Feb_18_1553,Neighborhood,3.2.4,59.99451248967744,
Faces\faces\M2.jpg,0.7,-1,85,93,M2,0,3,3,2,9,0,9,0,,,,,,,,,,,,,,,,,,,,,,,,,,,,,,,,,,,,,,,,,,,,,,,,,,,,,,,,,,,,,,,,,,,,,,,,,,,,,,,,,,,,,,,,,,,,,,,0.010787354629428592,None,95,4,0,1166.806606745302,None,1166.806606745302,None,space,0.5778484155562182,1166.806606745302,None,1166.806606745302,None,1166.806606745302,None,1166.806606745302,None,1168.8732257163774,None,0.010285947155352915,None,100,4,1169.2898657429414,None,1169.2898657429414,None,1169.2898657429414,None,1169.2898657429414,None,1171.356507656199,None,,,,,,,070,004,SK,2020_Feb_18_1553,Neighborhood,3.2.4,59.99451248967744,
Faces\faces\M2.jpg,0.7,-1,85,93,M2,0,3,3,2,10,0,10,0,,,,,,,,,,,,,,,,,,,,,,,,,,,,,,,,,,,,,,,,,,,,,,,,,,,,,,,,,,,,,,,,,,,,,,,,,,,,,,,,,,,,,,,,,,,,,,,0.011891296308021992,None,95,4,-1,1174.3065072788613,None,1174.3065072788613,None,space,0.6548758933495265,1174.3065072788613,None,1174.3065072788613,None,1174.3065072788613,None,1174.3065072788613,None,1176.3731679081084,None,0.010324586626666132,None,100,4,1176.7898284618914,None,1176.7898284618914,None,1176.7898284618914,None,1176.7898284618914,None,1178.8564610171543,None,,,,,,,070,004,SK,2020_Feb_18_1553,Neighborhood,3.2.4,59.99451248967744,
Faces\faces\M2.jpg,0.7,-1,85,93,M2,0,3,3,2,11,0,11,0,,,,,,,,,,,,,,,,,,,,,,,,,,,,,,,,,,,,,,,,,,,,,,,,,,,,,,,,,,,,,,,,,,,,,,,,,,,,,,,,,,,,,,,,,,,,,,,0.012590127313160338,None,95,4,0,1181.8064618472981,None,1181.8064618472981,None,None,,1181.8064618472981,None,1181.8064618472981,None,1181.8064618472981,None,1181.8064618472981,None,1183.8731731908501,None,0.01015191650367342,None,100,4,1184.289775785428,None,1184.289775785428,None,1184.289775785428,None,1184.289775785428,None,1186.3564617718312,None,,,,,,,070,004,SK,2020_Feb_18_1553,Neighborhood,3.2.4,59.99451248967744,
Faces\faces\M2.jpg,0.7,-1,85,93,M2,0,3,3,2,12,0,12,0,,,,,,,,,,,,,,,,,,,,,,,,,,,,,,,,,,,,,,,,,,,,,,,,,,,,,,,,,,,,,,,,,,,,,,,,,,,,,,,,,,,,,,,,,,,,,,,0.01173854965963983,None,95,4,0,1189.3064127932867,None,1189.3064127932867,None,None,,1189.3064127932867,None,1189.3064127932867,None,1189.3064127932867,None,1189.3064127932867,None,1191.3730752337597,None,0.011305968739179661,None,100,4,1191.7897418249613,None,1191.7897418249613,None,1191.7897418249613,None,1191.7897418249613,None,1193.8563840400875,None,,,,,,,070,004,SK,2020_Feb_18_1553,Neighborhood,3.2.4,59.99451248967744,
Faces\faces\M2.jpg,0.7,-1,85,93,M2,0,3,3,2,13,0,13,0,,,,,,,,,,,,,,,,,,,,,,,,,,,,,,,,,,,,,,,,,,,,,,,,,,,,,,,,,,,,,,,,,,,,,,,,,,,,,,,,,,,,,,,,,,,,,,,0.01293697691289708,None,95,4,-1,1196.8063770215904,None,1196.8063770215904,None,None,,1196.8063770215904,None,1196.8063770215904,None,1196.8063770215904,None,1196.8063770215904,None,1198.8730424807745,None,0.01097511829357245,None,100,4,1199.2896671119252,None,1199.2896671119252,None,1199.2896671119252,None,1199.2896671119252,None,1201.3563383066557,None,,,,,,,070,004,SK,2020_Feb_18_1553,Neighborhood,3.2.4,59.99451248967744,
Faces\faces\M2.jpg,0.7,-1,85,93,M2,0,3,3,2,14,0,14,0,,,,,,,,,,,,,,,,,,,,,,,,,,,,,,,,,,,,,,,,,,,,,,,,,,,,,,,,,,,,,,,,,,,,,,,,,,,,,,,,,,,,,,,,,,,,,,,0.011672439944959478,None,95,4,0,1204.3063487966665,None,1204.3063487966665,None,space,0.5677505339335767,1204.3063487966665,None,1204.3063487966665,None,1204.3063487966665,None,1204.3063487966665,None,1206.37294633491,None,0.010194782160397153,None,100,4,1206.7896319439733,None,1206.7896319439733,None,1206.7896319439733,None,1206.7896319439733,None,1208.8562663104585,None,,,,,,,070,004,SK,2020_Feb_18_1553,Neighborhood,3.2.4,59.99451248967744,
Faces\faces\M2.jpg,0.7,-1,85,93,M2,0,3,3,2,15,0,15,0,,,,,,,,,,,,,,,,,,,,,,,,,,,,,,,,,,,,,,,,,,,,,,,,,,,,,,,,,,,,,,,,,,,,,,,,,,,,,,,,,,,,,,,,,,,,,,,0.011841789488244103,None,95,4,-1,1211.8062849509824,None,1211.8062849509824,None,None,,1211.8062849509824,None,1211.8062849509824,None,1211.8062849509824,None,1211.8062849509824,None,1213.872948297072,None,0.01087036911121686,None,100,4,1214.2895955685362,None,1214.2895955685362,None,1214.2895955685362,None,1214.2895955685362,None,1216.356281856808,None,,,,,,,070,004,SK,2020_Feb_18_1553,Neighborhood,3.2.4,59.99451248967744,
Faces\faces\M2.jpg,0.7,-1,85,93,M2,0,3,3,2,16,0,16,0,,,,,,,,,,,,,,,,,,,,,,,,,,,,,,,,,,,,,,,,,,,,,,,,,,,,,,,,,,,,,,,,,,,,,,,,,,,,,,,,,,,,,,,,,,,,,,,0.01153810741743655,None,95,4,-1,1219.3062346894858,None,1219.3062346894858,None,space,0.38074999811215093,1219.3062346894858,None,1219.3062346894858,None,1219.3062346894858,None,1219.3062346894858,None,1221.3728784139694,None,0.009952983615221456,None,100,4,1221.7895604005807,None,1221.7895604005807,None,1221.7895604005807,None,1221.7895604005807,None,1223.8562011063568,None,,,,,,,070,004,SK,2020_Feb_18_1553,Neighborhood,3.2.4,59.99451248967744,
Faces\faces\M2.jpg,0.7,-1,85,93,M2,0,3,3,2,17,0,17,0,,,,,,,,,,,,,,,,,,,,,,,,,,,,,,,,,,,,,,,,,,,,,,,,,,,,,,,,,,,,,,,,,,,,,,,,,,,,,,,,,,,,,,,,,,,,,,,0.011707456964359153,None,95,4,-1,1226.8061868429595,None,1226.8061868429595,None,space,0.5987092002687859,1226.8061868429595,None,1226.8061868429595,None,1226.8061868429595,None,1226.8061868429595,None,1228.872857735818,None,0.010259382524964167,None,100,4,1229.2895176858565,None,1229.2895176858565,None,1229.2895176858565,None,1229.2895176858565,None,1231.3561387700265,None,,,,,,,070,004,SK,2020_Feb_18_1553,Neighborhood,3.2.4,59.99451248967744,
Faces\faces\M2.jpg,0.7,-1,85,93,M2,0,3,3,2,18,0,18,0,,,,,,,,,,,,,,,,,,,,,,,,,,,,,,,,,,,,,,,,,,,,,,,,,,,,,,,,,,,,,,,,,,,,,,,,,,,,,,,,,,,,,,,,,,,,,,,0.012500471675593872,None,95,4,-1,1234.3061329590146,None,1234.3061329590146,None,None,,1234.3061329590146,None,1234.3061329590146,None,1234.3061329590146,None,1234.3061329590146,None,1236.3727772872353,None,0.009995849279221147,None,100,4,1236.789490064677,None,1236.789490064677,None,1236.789490064677,None,1236.789490064677,None,1238.8560987721412,None,,,,,,,070,004,SK,2020_Feb_18_1553,Neighborhood,3.2.4,59.99451248967744,
Faces\faces\M2.jpg,0.7,-1,85,93,M2,0,3,3,2,19,0,19,0,,,,,,,,,,,,,,,,,,,,,,,,,,,,,,,,,,,,,,,,,,,,,,,,,,,,,,,,,,,,,,,,,,,,,,,,,,,,,,,,,,,,,,,,,,,,,,,0.01258167492778739,None,95,4,-1,1241.8061156014392,None,1241.8061156014392,None,space,0.8706368720158935,1241.8061156014392,None,1241.8061156014392,None,1241.8061156014392,None,1241.8061156014392,None,1243.8727602315357,None,0.00934290263830917,None,100,4,1244.2893812402344,None,1244.2893812402344,None,1244.2893812402344,None,1244.2893812402344,None,1246.3560491143853,None,,,,,,,070,004,SK,2020_Feb_18_1553,Neighborhood,3.2.4,59.99451248967744,
Faces\faces\M2.jpg,0.7,-1,85,93,M2,0,3,3,2,20,0,20,0,,,,,,,,,,,,,,,,,,,,,,,,,,,,,,,,,,,,,,,,,,,,,,,,,,,,,,,,,,,,,,,,,,,,,,,,,,,,,,,,,,,,,,,,,,,,,,,0.011158353896462359,None,95,4,0,1249.3060381715677,None,1249.3060381715677,None,None,,1249.3060381715677,None,1249.3060381715677,None,1249.3060381715677,None,1249.3060381715677,None,1251.3726915559182,None,0.009929739560902817,None,100,4,1251.7893364124157,None,1251.7893364124157,None,1251.7893364124157,None,1251.7893364124157,None,1253.8560202857207,None,,,,,,,070,004,SK,2020_Feb_18_1553,Neighborhood,3.2.4,59.99451248967744,
Faces\faces\M2.jpg,0.7,-1,85,93,M2,0,3,3,2,21,0,21,0,,,,,,,,,,,,,,,,,,,,,,,,,,,,,,,,,,,,,,,,,,,,,,,,,,,,,,,,,,,,,,,,,,,,,,,,,,,,,,,,,,,,,,,,,,,,,,,0.011452979844762012,None,95,4,0,1256.8059876082025,None,1256.8059876082025,None,None,,1256.8059876082025,None,1256.8059876082025,None,1256.8059876082025,None,1256.8059876082025,None,1258.8893205641962,None,0.010973910812026588,None,100,4,1259.2893416951538,None,1259.2893416951538,None,1259.2893416951538,None,1259.2893416951538,None,1261.3559667036443,None,,,,,,,070,004,SK,2020_Feb_18_1553,Neighborhood,3.2.4,59.99451248967744,
Faces\faces\M2.jpg,0.7,-1,85,93,M2,0,3,3,2,22,0,22,0,,,,,,,,,,,,,,,,,,,,,,,,,,,,,,,,,,,,,,,,,,,,,,,,,,,,,,,,,,,,,,,,,,,,,,,,,,,,,,,,,,,,,,,,,,,,,,,0.01105601968083647,None,95,4,-1,1264.305954251473,None,1264.305954251473,None,None,,1264.305954251473,None,1264.305954251473,None,1264.305954251473,None,1264.305954251473,None,1266.3725874104766,None,0.010822371645190287,None,100,4,1266.7893107533946,None,1266.7893107533946,None,1266.7893107533946,None,1266.7893107533946,None,1268.8559197627274,None,,,,,,,070,004,SK,2020_Feb_18_1553,Neighborhood,3.2.4,59.99451248967744,
Faces\faces\M2.jpg,0.7,-1,85,93,M2,0,3,3,2,23,0,23,0,,,,,,,,,,,,,,,,,,,,,,,,,,,,,,,,,,,,,,,,,,,,,,,,,,,,,,,,,,,,,,,,,,,,,,,,,,,,,,,,,,,,,,,,,,,,,,,0.012306972461374244,None,95,4,0,1271.8059441388014,None,1271.8059441388014,None,space,1.0825948817800963,1271.8059441388014,None,1271.8059441388014,None,1271.8059441388014,None,1271.8059441388014,None,1273.8726207672025,None,0.011831525880552363,None,100,4,1274.289223361784,None,1274.289223361784,None,1274.289223361784,None,1274.289223361784,None,1276.355863765688,None,,,,,,,070,004,SK,2020_Feb_18_1553,Neighborhood,3.2.4,59.99451248967744,
Faces\faces\M2.jpg,0.7,-1,85,93,M2,0,3,3,2,24,0,24,0,,,,,,,,,,,,,,,,,,,,,,,,,,,,,,,,,,,,,,,,,,,,,,,,,,,,,,,,,,,,,,,,,,,,,,,,,,,,,,,,,,,,,,,,,,,,,,,0.010886066393140936,None,95,4,0,1279.3058655014447,None,1279.3058655014447,None,None,,1279.3058655014447,None,1279.3058655014447,None,1279.3058655014447,None,1279.3058655014447,None,1281.3725022828967,None,0.010381640211562626,None,100,4,1281.7891571011332,None,1281.7891571011332,None,1281.7891571011332,None,1281.7891571011332,None,1283.8558129004505,None,,,,,,,070,004,SK,2020_Feb_18_1553,Neighborhood,3.2.4,59.99451248967744,
Faces\faces\M2.jpg,0.7,-1,85,93,M2,0,3,3,2,25,0,25,0,,,,,,,,,,,,,,,,,,,,,,,,,,,,,,,,,,,,,,,,,,,,,,,,,,,,,,,,,,,,,,,,,,,,,,,,,,,,,,,,,,,,,,,,,,,,,,,0.011179182984051295,None,95,4,0,1286.80580829692,None,1286.80580829692,None,None,,1286.80580829692,None,1286.80580829692,None,1286.80580829692,None,1286.80580829692,None,1288.872484925325,None,0.011699608319759136,None,100,4,1289.2890884255157,None,1289.2890884255157,None,1289.2890884255157,None,1289.2890884255157,None,1291.3557644501798,None,,,,,,,070,004,SK,2020_Feb_18_1553,Neighborhood,3.2.4,59.99451248967744,
Faces\faces\M2.jpg,0.7,-1,85,93,M2,0,3,3,2,26,0,26,0,,,,,,,,,,,,,,,,,,,,,,,,,,,,,,,,,,,,,,,,,,,,,,,,,,,,,,,,,,,,,,,,,,,,,,,,,,,,,,,,,,,,,,,,,,,,,,,0.012451266724383458,None,95,4,-1,1294.3057818832222,None,1294.3057818832222,None,None,,1294.3057818832222,None,1294.3057818832222,None,1294.3057818832222,None,1294.3057818832222,None,1296.3724041748737,None,0.011272159204963828,None,100,4,1296.789058389366,None,1296.789058389366,None,1296.789058389366,None,1296.789058389366,None,1298.8557214335833,None,,,,,,,070,004,SK,2020_Feb_18_1553,Neighborhood,3.2.4,59.99451248967744,
Faces\faces\M2.jpg,0.7,-1,85,93,M2,0,3,3,2,27,0,27,0,,,,,,,,,,,,,,,,,,,,,,,,,,,,,,,,,,,,,,,,,,,,,,,,,,,,,,,,,,,,,,,,,,,,,,,,,,,,,,,,,,,,,,,,,,,,,,,0.011003494153555948,None,95,4,0,1301.8057123019917,None,1301.8057123019917,None,None,,1301.8057123019917,None,1301.8057123019917,None,1301.8057123019917,None,1301.8057123019917,None,1303.8723964771652,None,0.010573026327620028,None,100,4,1304.2890165802546,None,1304.2890165802546,None,1304.2890165802546,None,1304.2890165802546,None,1306.355669662733,None,,,,,,,070,004,SK,2020_Feb_18_1553,Neighborhood,3.2.4,59.99451248967744,
Faces\faces\M2.jpg,0.7,-1,85,93,M2,0,3,3,2,28,0,28,0,,,,,,,,,,,,,,,,,,,,,,,,,,,,,,,,,,,,,,,,,,,,,,,,,,,,,,,,,,,,,,,,,,,,,,,,,,,,,,,,,,,,,,,,,,,,,,,0.012357384894130519,None,95,4,0,1309.305655097467,None,1309.305655097467,None,None,,1309.305655097467,None,1309.305655097467,None,1309.305655097467,None,1309.305655097467,None,1311.3723108967806,None,0.011909710428881226,None,100,4,1311.788979902949,None,1311.788979902949,None,1311.788979902949,None,1311.788979902949,None,1313.8556037039543,None,,,,,,,070,004,SK,2020_Feb_18_1553,Neighborhood,3.2.4,59.99451248967744,
Faces\faces\M2.jpg,0.7,-1,85,93,M2,0,3,3,2,29,0,29,0,,,,,,,,,,,,,,,,,,,,,,,,,,,,,,,,,,,,,,,,,,,,,,,,,,,,,,,,,,,,,,,,,,,,,,,,,,,,,,,,,,,,,,,,,,,,,,,0.010963345332129393,None,95,4,0,1316.8056317024766,None,1316.8056317024766,None,None,,1316.8056317024766,None,1316.8056317024766,None,1316.8056317024766,None,1316.8056317024766,None,1318.8722702951545,None,0.010525028865231434,None,100,4,1319.2889236040337,None,1319.2889236040337,None,1319.2889236040337,None,1319.2889236040337,None,1321.3555857426381,None,,,,,,,070,004,SK,2020_Feb_18_1553,Neighborhood,3.2.4,59.99451248967744,
Faces\faces\M2.jpg,0.7,-1,85,93,M2,0,3,3,2,30,0,30,0,,,,,,,,,,,,,,,,,,,,,,,,,,,,,,,,,,,,,,,,,,,,,,,,,,,,,,,,,,,,,,,,,,,,,,,,,,,,,,,,,,,,,,,,,,,,,,,0.013221942987001967,None,95,4,-1,1324.30558144098,None,1324.30558144098,None,None,,1324.30558144098,None,1324.30558144098,None,1324.30558144098,None,1324.30558144098,None,1326.3721922615387,None,0.011780509707023157,None,100,4,1326.7888706257017,None,1326.7888706257017,None,1326.7888706257017,None,1326.7888706257017,None,1328.855046450377,None,,,,,,,070,004,SK,2020_Feb_18_1553,Neighborhood,3.2.4,59.99451248967744,
Faces\faces\M2.jpg,0.7,-1,85,93,M2,0,3,3,2,31,0,31,0,,,,,,,,,,,,,,,,,,,,,,,,,,,,,,,,,,,,,,,,,,,,,,,,,,,,,,,,,,,,,,,,,,,,,,,,,,,,,,,,,,,,,,,,,,,,,,,0.011727078570402227,None,95,4,0,1331.805536311289,None,1331.805536311289,None,space,0.5993899190252705,1331.805536311289,None,1331.805536311289,None,1331.805536311289,None,1331.805536311289,None,1333.8721610179073,None,0.010353566223784583,None,100,4,1334.2888264016237,None,1334.2888264016237,None,1334.2888264016237,None,1334.2888264016237,None,1336.3554957851284,None,,,,,,,070,004,SK,2020_Feb_18_1553,Neighborhood,3.2.4,59.99451248967744,
Faces\faces\M2.jpg,0.7,-1,85,93,M2,0,3,3,2,32,0,32,0,,,,,,,,,,,,,,,,,,,,,,,,,,,,,,,,,,,,,,,,,,,,,,,,,,,,,,,,,,,,,,,,,,,,,,,,,,,,,,,,,,,,,,,,,,,,,,,0.011861411094287178,None,95,4,0,1339.3054760880568,None,1339.3054760880568,None,None,,1339.3054760880568,None,1339.3054760880568,None,1339.3054760880568,None,1339.3054760880568,None,1341.3721228312443,None,0.011105224624770926,None,100,4,1341.7887791588346,None,1341.7887791588346,None,1341.7887791588346,None,1341.7887791588346,None,1343.8554443161502,None,,,,,,,070,004,SK,2020_Feb_18_1553,Neighborhood,3.2.4,59.99451248967744,
Faces\faces\M2.jpg,0.7,-1,85,93,M2,0,3,3,2,33,0,33,0,,,,,,,,,,,,,,,,,,,,,,,,,,,,,,,,,,,,,,,,,,,,,,,,,,,,,,,,,,,,,,,,,,,,,,,,,,,,,,,,,,,,,,,,,,,,,,,0.011675156783894636,None,95,4,0,1346.8054197891415,None,1346.8054197891415,None,None,,1346.8054197891415,None,1346.8054197891415,None,1346.8054197891415,None,1346.8054197891415,None,1348.872090682,None,0.01023040291693178,None,100,4,1349.2887295010823,None,1349.2887295010823,None,1349.2887295010823,None,1349.2887295010823,None,1351.3553907340738,None,,,,,,,070,004,SK,2020_Feb_18_1553,Neighborhood,3.2.4,59.99451248967744,
Faces\faces\M2.jpg,0.7,-1,85,93,M2,0,3,3,2,34,0,34,0,,,,,,,,,,,,,,,,,,,,,,,,,,,,,,,,,,,,,,,,,,,,,,,,,,,,,,,,,,,,,,,,,,,,,,,,,,,,,,,,,,,,,,,,,,,,,,,0.011790471446147421,None,95,4,-1,1354.3053939791844,None,1354.3053939791844,None,None,,1354.3053939791844,None,1354.3053939791844,None,1354.3053939791844,None,1354.3053939791844,None,1356.3720328737345,None,0.011499769821966765,None,100,4,1356.788679541458,None,1356.788679541458,None,1356.788679541458,None,1356.788679541458,None,1358.8553181341358,None,,,,,,,070,004,SK,2020_Feb_18_1553,Neighborhood,3.2.4,59.99451248967744,
Faces\faces\M2.jpg,0.7,-1,85,93,M2,0,3,3,2,35,0,35,0,,,,,,,,,,,,,,,,,,,,,,,,,,,,,,,,,,,,,,,,,,,,,,,,,,,,,,,,,,,,,,,,,,,,,,,,,,,,,,,,,,,,,,,,,,,,,,,0.012470586458221078,None,95,4,-1,1361.8053231904723,None,1361.8053231904723,None,None,,1361.8053231904723,None,1361.8053231904723,None,1361.8053231904723,None,1361.8053231904723,None,1363.8720188367388,None,0.010096372265252285,None,100,4,1364.28864256228,None,1364.28864256228,None,1364.28864256228,None,1364.28864256228,None,1366.3553001728196,None,,,,,,,070,004,SK,2020_Feb_18_1553,Neighborhood,3.2.4,59.99451248967744,
Faces\faces\M2.jpg,0.7,-1,85,93,M2,0,3,3,2,36,0,36,0,,,,,,,,,,,,,,,,,,,,,,,,,,,,,,,,,,,,,,,,,,,,,,,,,,,,,,,,,,,,,,,,,,,,,,,,,,,,,,,,,,,,,,,,,,,,,,,0.011651308985165088,None,95,4,-1,1369.3052753439424,None,1369.3052753439424,None,space,0.5863128740384127,1369.3052753439424,None,1369.3052753439424,None,1369.3052753439424,None,1369.3052753439424,None,1371.3719245021002,None,0.011398341219319263,None,100,4,1371.788589282076,None,1371.788589282076,None,1371.788589282076,None,1371.788589282076,None,1373.8552601749343,None,,,,,,,070,004,SK,2020_Feb_18_1553,Neighborhood,3.2.4,59.99451248967744,
Faces\faces\M2.jpg,0.7,-1,85,93,M2,0,3,3,2,37,0,37,0,,,,,,,,,,,,,,,,,,,,,,,,,,,,,,,,,,,,,,,,,,,,,,,,,,,,,,,,,,,,,,,,,,,,,,,,,,,,,,,,,,,,,,,,,,,,,,,0.012276483503228519,None,95,4,-1,1376.8052277992847,None,1376.8052277992847,None,space,0.3922844830813119,1376.8052277992847,None,1376.8052277992847,None,1376.8052277992847,None,1376.8052277992847,None,1378.871891447243,None,0.009873289713141276,None,100,4,1379.2885616608928,None,1379.2885616608928,None,1379.2885616608928,None,1379.2885616608928,None,1381.3551963292502,None,,,,,,,070,004,SK,2020_Feb_18_1553,Neighborhood,3.2.4,59.99451248967744,
Faces\faces\M2.jpg,0.7,-1,85,93,M2,0,3,3,2,38,0,38,0,,,,,,,,,,,,,,,,,,,,,,,,,,,,,,,,,,,,,,,,,,,,,,,,,,,,,,,,,,,,,,,,,,,,,,,,,,,,,,,,,,,,,,,,,,,,,,,0.011592444170673843,None,95,4,0,1384.305208630487,None,1384.305208630487,None,None,,1384.305208630487,None,1384.305208630487,None,1384.305208630487,None,1384.305208630487,None,1386.371840280137,None,0.011087414248322602,None,100,4,1386.788494494629,None,1386.788494494629,None,1386.788494494629,None,1386.788494494629,None,1388.8551246349252,None,,,,,,,070,004,SK,2020_Feb_18_1553,Neighborhood,3.2.4,59.99451248967744,
Faces\faces\M2.jpg,0.7,-1,85,93,M2,0,3,3,2,39,0,39,0,,,,,,,,,,,,,,,,,,,,,,,,,,,,,,,,,,,,,,,,,,,,,,,,,,,,,,,,,,,,,,,,,,,,,,,,,,,,,,,,,,,,,,,,,,,,,,,0.011820658528449712,None,95,4,0,1391.8051710475684,None,1391.8051710475684,None,None,,1391.8051710475684,None,1391.8051710475684,None,1391.8051710475684,None,1391.8051710475684,None,1393.8717891130273,None,0.009795708905585343,None,100,4,1394.2884463462306,None,1394.2884463462306,None,1394.2884463462306,None,1394.2884463462306,None,1396.3550843351677,None,,,,,,,070,004,SK,2020_Feb_18_1553,Neighborhood,3.2.4,59.99451248967744,
,,,,,,,,,,,,,,,,,,,,,,,,,,,,,,,,,,,,,,,,,,,,,,,,,,,,,,,,,,,,,,,,,,,,,,,,,,,,,,,,,,,,,,,,,,,,,,,,,,,,,,,,,,,,,,,,,,,,,,,,,,,,,,,,,,,,,,,,,,,,,,,0.008033990659896517,None,93,4,1399.2883983487645,None,,,,,,,,
