testCS,correctAns,CS,US,blocks.thisRepN,blocks.thisTrialN,blocks.thisN,blocks.thisIndex,trials.thisRepN,trials.thisTrialN,trials.thisN,trials.thisIndex,p_port_4_start,p_port_4_end,key_resp_4.keys,key_resp_4.rt,key_resp_4.started,key_resp_4.stopped,text_2.started,text_2.stopped,p_port_4.started,p_port_4.stopped,Ready.started,Ready.stopped,vend.started,vend.stopped,p_port.started,p_port.stopped,p_port_start,p_port_end,p_port_3_start,p_port_3_end,vend_CS.started,vend_CS.stopped,p_port_3.started,p_port_3.stopped,Outcome.started,Outcome.stopped,reward.started,reward.stopped,p_port_2.started,p_port_2.stopped,vend_testy.started,vend_testy.stopped,choice_text.started,choice_text.stopped,key_resp_2.keys,key_resp_2.corr,key_resp_2.rt,key_resp_2.started,key_resp_2.stopped,option_text.started,option_text.stopped,p_port_2_start,p_port_2_end,image.started,image.stopped,p_port_5.started,p_port_5.stopped,p_port_5_start,p_port_5_end,feedback_text.started,feedback_text.stopped,text.started,text.stopped,finish_text.started,finish_text.stopped,Thankyou_text.started,Thankyou_text.stopped,version,participant,CB,participant initials,phase,date,expName,psychopyVersion,frameRate,
,,,,,,,,,,,,159,4,q,7.7852569298229355,30.664123404802012,None,,,,,,,,,,,,,,,,,,,,,,,,,,,,,,,,,,,,,,,,,,,,,,,,,,,,B,070,yes,SK,Vpav,2020_Feb_18_1421,Pavlovian,3.2.4,60.01516378498971,
CByellow.png,k,yellow.png,4,0,0,0,3,0,0,0,3,,,,,,,30.664123404802012,None,0.014903273035088205,1.0131376304652804,38.48066139902039,None,61.83054872572757,None,0.008907121889933478,1.5177391081251699,111,4,117,4,63.51393843344158,66.51390583139073,2.0010735734740592,3.5010589327375783,65.51385692831354,None,66.48048812515663,None,,,,,,,,,,,,,,,,,,,,,,,,,,,,,,B,070,yes,SK,Vpav,2020_Feb_18_1421,Pavlovian,3.2.4,60.01516378498971,
CByellow.png,k,blue.png,3,0,0,0,3,0,1,1,2,,,,,,,,,,,,,67.48051650101479,None,0.008718211114683072,1.5006427132175304,111,4,117,4,69.04718452609995,72.04711932199825,2.0006359211238305,3.5006433169583033,71.04712656689844,None,72.03045424015363,None,,,,,,,,,,,,,,,,,,,,,,,,,,,,,,B,070,yes,SK,Vpav,2020_Feb_18_1421,Pavlovian,3.2.4,60.01516378498971,
CByellow.png,k,red.png,1,0,0,0,3,0,2,2,0,,,,,,,,,,,,,72.9304909174607,None,0.01223530832612596,1.5077318481307884,111,4,117,4,74.59718263940704,77.59714671677648,2.0077676198252448,None,76.59715245232292,None,77.5804460141735,None,,,,,,,,,,,,,,,,,,,,,,,,,,,,,,B,070,yes,SK,Vpav,2020_Feb_18_1421,Pavlovian,3.2.4,60.01516378498971,
CByellow.png,k,green.png,2,0,0,0,3,0,3,3,1,,,,,,,,,,,,,78.44711781264414,None,0.005914796956858481,1.4950856332143303,111,4,117,4,80.06384749485005,83.06372010535233,2.0117451304486167,3.51175162067193,82.06372916147848,None,83.06372010535233,None,,,,,,,,,,,,,,,,,,,,,,,,,,,,,,B,070,yes,SK,Vpav,2020_Feb_18_1421,Pavlovian,3.2.4,60.01516378498971,
CByellow.png,k,blue.png,3,0,0,0,3,1,0,4,2,,,,,,,,,,,,,83.93040367678623,None,0.0011225671132706339,1.50212764609023,111,4,117,4,85.66377957390978,88.66369414446126,2.002124778317011,None,87.66369806878174,None,88.64706951330845,None,,,,,,,,,,,,,,,,,,,,,,,,,,,,,,B,070,yes,SK,Vpav,2020_Feb_18_1421,Pavlovian,3.2.4,60.01516378498971,
CByellow.png,k,yellow.png,4,0,0,0,3,1,1,5,3,,,,,,,,,,,,,89.43038601734224,None,0.011482170753879473,1.5062904450333008,111,4,117,4,90.98036028285242,93.9803228508681,2.0062057702616585,3.506239730731977,92.98032858641454,None,93.96366290082733,None,,,,,,,,,,,,,,,,,,,,,,,,,,,,,,B,070,yes,SK,Vpav,2020_Feb_18_1421,Pavlovian,3.2.4,60.01516378498971,
CByellow.png,k,green.png,2,0,0,0,3,1,2,6,1,,,,,,,,,,,,,94.96367889998328,None,0.006754903515684418,1.4967845623268659,111,4,117,4,96.56370546461767,99.56366471205365,2.0134513044613414,3.5134529647511954,98.56365203347741,None,99.56366471205365,None,,,,,,,,,,,,,,,,,,,,,,,,,,,,,,B,070,yes,SK,Vpav,2020_Feb_18_1421,Pavlovian,3.2.4,60.01516378498971,
CByellow.png,k,red.png,1,0,0,0,3,1,3,7,0,,,,,,,,,,,,,100.43031356834035,None,0.014603575660657953,1.5124353883202275,111,4,117,4,102.04700129049888,105.04692944523777,2.0124376523508545,3.512460443600503,104.04694997245497,None,105.03025953345787,None,,,,,,,,,,,,,,,,,,,,,,,,,,,,,,B,070,yes,SK,Vpav,2020_Feb_18_1421,Pavlovian,3.2.4,60.01516378498971,
CByellow.png,k,red.png,1,0,0,0,3,2,0,8,0,,,,,,,,,,,,,105.94690937082669,None,0.01128704144139192,1.5058323862158431,111,4,117,4,107.59698793271309,110.59688288165853,2.0058295184426242,None,109.5968979752015,None,110.58022112039362,None,,,,,,,,,,,,,,,,,,,,,,,,,,,,,,B,070,yes,SK,Vpav,2020_Feb_18_1421,Pavlovian,3.2.4,60.01516378498971,
CByellow.png,k,blue.png,3,0,0,0,3,2,1,9,2,,,,,,,,,,,,,111.46361505429923,None,0.010043152438811376,1.5032844151646714,111,4,117,4,113.1802724384379,116.18018549963381,2.0032954334510578,None,115.18019395201736,None,116.16355694416234,None,,,,,,,,,,,,,,,,,,,,,,,,,,,,,,B,070,yes,SK,Vpav,2020_Feb_18_1421,Pavlovian,3.2.4,60.01516378498971,
CByellow.png,k,yellow.png,4,0,0,0,3,2,2,10,3,,,,,,,,,,,,,116.96355996286911,None,0.013353377558814827,1.5099985359283892,111,4,117,4,118.48031334193729,121.48024119480579,2.0099956681551703,3.5099825367742596,120.48023093119627,None,121.4635293229785,None,,,,,,,,,,,,,,,,,,,,,,,,,,,,,,B,070,yes,SK,Vpav,2020_Feb_18_1421,Pavlovian,3.2.4,60.01516378498971,
CByellow.png,k,green.png,2,0,0,0,3,2,3,11,1,,,,,,,,,,,,,122.46351332382437,None,0.002174496445149998,1.5042877432915702,111,4,117,4,123.96357596202506,126.96348057083742,2.0042646501715353,3.504255744981492,125.96348872135059,None,126.94679315055146,None,,,,,,,,,,,,,,,,,,,,,,,,,,,,,,B,070,yes,SK,Vpav,2020_Feb_18_1421,Pavlovian,3.2.4,60.01516378498971,
CByellow.png,k,,,0,0,0,3,,,,,,,,,,,,,,,,,127.96351287101788,None,,,,,,,,,,,,,,,0.016457304142022622,1.0160814749397105,129.59680348962684,None,130.59676877447964,None,k,1,4.5936229784074385,130.59676877447964,None,129.59680348962684,None,159,4,129.59680348962684,None,0.009414295094757108,None,119,4,135.44674953021422,None,,,,,,,B,070,yes,SK,Vpav,2020_Feb_18_1421,Pavlovian,3.2.4,60.01516378498971,
CBblue.png,s,red.png,1,0,1,1,2,0,0,0,0,,,,,,,,,,,,,137.6634094802539,None,0.003022512017196277,1.5059698280092562,111,4,117,4,139.36347513716282,142.36335710566163,2.005908699162319,None,141.36336404869144,None,142.34669896684682,None,,,,,,,,,,,,,,,,,,,,,,,,,,,,,,B,070,yes,SK,Vpav,2020_Feb_18_1421,Pavlovian,3.2.4,60.01516378498971,
CBblue.png,s,yellow.png,4,0,1,1,2,0,1,1,3,,,,,,,,,,,,,143.19671473959897,None,0.012535609443148132,1.5083273789350642,111,4,117,4,144.78010610760248,147.77999169855138,2.0083245111618453,3.5083153041014157,146.77999652848484,None,147.76332299425667,None,,,,,,,,,,,,,,,,,,,,,,,,,,,,,,B,070,yes,SK,Vpav,2020_Feb_18_1421,Pavlovian,3.2.4,60.01516378498971,
CBblue.png,s,blue.png,3,0,1,1,2,0,2,2,2,,,,,,,,,,,,,148.71332744685242,None,0.0022110831869213143,1.5042129396933888,111,4,117,4,150.36336706740076,153.36329069407657,2.0041865259936458,None,152.3632931090433,None,153.3466198766855,None,,,,,,,,,,,,,,,,,,,,,,,,,,,,,,B,070,yes,SK,Vpav,2020_Feb_18_1421,Pavlovian,3.2.4,60.01516378498971,
CBblue.png,s,green.png,2,0,1,1,2,0,3,3,1,,,,,,,,,,,,,154.1800037733865,None,0.0023598451443831436,1.5046614593993581,111,4,117,4,155.79663504569544,158.79659368939065,2.0046911936769902,3.5046602519159933,157.79661300912448,None,158.77992317386997,None,,,,,,,,,,,,,,,,,,,,,,,,,,,,,,B,070,yes,SK,Vpav,2020_Feb_18_1421,Pavlovian,3.2.4,60.01516378498971,
CBblue.png,s,yellow.png,4,0,1,1,2,1,0,4,3,,,,,,,,,,,,,159.68000030187068,None,0.008015999155759346,1.4992869508787408,111,4,117,4,161.2633014104922,164.26323047084406,1.9992801587850408,3.4992679330152896,163.26322413155503,None,164.2465530122936,None,,,,,,,,,,,,,,,,,,,,,,,,,,,,,,B,070,yes,SK,Vpav,2020_Feb_18_1421,Pavlovian,3.2.4,60.01516378498971,
CBblue.png,s,green.png,2,0,1,1,2,1,1,5,1,,,,,,,,,,,,,165.21322858415078,None,0.010423630452351063,1.5041119638990494,111,4,117,4,166.74656553993373,169.74654833329623,2.0041305289560114,3.504075135655512,168.7465425977498,None,169.72987691216258,None,,,,,,,,,,,,,,,,,,,,,,,,,,,,,,B,070,yes,SK,Vpav,2020_Feb_18_1421,Pavlovian,3.2.4,60.01516378498971,
CBblue.png,s,red.png,1,0,1,1,2,1,2,6,0,,,,,,,,,,,,,170.67991396680918,None,0.003296459812190733,1.5064484442355024,111,4,117,4,172.4632365082598,175.46318428460472,2.0064422558843944,None,174.46317915279906,None,175.44651407095444,None,,,,,,,,,,,,,,,,,,,,,,,,,,,,,,B,070,yes,SK,Vpav,2020_Feb_18_1421,Pavlovian,3.2.4,60.01516378498971,
CBblue.png,s,blue.png,3,0,1,1,2,1,3,7,2,,,,,,,,,,,,,176.19649075143207,None,0.0017954372233361937,1.5035198744226363,111,4,117,4,177.87987472359964,180.87979533156795,2.003524553421812,None,179.8797968409217,None,180.8631441357811,None,,,,,,,,,,,,,,,,,,,,,,,,,,,,,,B,070,yes,SK,Vpav,2020_Feb_18_1421,Pavlovian,3.2.4,60.01516378498971,
CBblue.png,s,green.png,2,0,1,1,2,2,0,8,1,,,,,,,,,,,,,181.67979895401731,None,0.015609379128363798,1.5144319318987982,111,4,117,4,183.2965126370691,186.2964190571074,2.014414574325201,3.514408385974093,185.296425698265,None,186.27975548461654,None,,,,,,,,,,,,,,,,,,,,,,,,,,,,,,B,070,yes,SK,Vpav,2020_Feb_18_1421,Pavlovian,3.2.4,60.01516378498971,
CBblue.png,s,yellow.png,4,0,1,1,2,2,1,9,3,,,,,,,,,,,,,187.17975986174315,None,0.01024721712929022,1.5037474850396393,111,4,117,4,188.76314730542617,191.7630772713892,2.0037415985589178,3.503731787755896,190.76307636577621,None,191.74640585025736,None,,,,,,,,,,,,,,,,,,,,,,,,,,,,,,B,070,yes,SK,Vpav,2020_Feb_18_1421,Pavlovian,3.2.4,60.01516378498971,
CBblue.png,s,red.png,1,0,1,1,2,2,2,10,0,,,,,,,,,,,,,192.71307025289207,None,0.0035837804825860076,1.5070463900046889,111,4,117,4,194.37977133283493,197.37968469590305,2.007036277331281,None,196.37969435576997,None,197.36301448225458,None,,,,,,,,,,,,,,,,,,,,,,,,,,,,,,B,070,yes,SK,Vpav,2020_Feb_18_1421,Pavlovian,3.2.4,60.01516378498971,
CBblue.png,s,blue.png,3,0,1,1,2,2,3,11,2,,,,,,,,,,,,,198.19635943761386,None,0.007927701935841469,1.4990809240298404,111,4,117,4,199.8297228070969,202.8296506599654,1.9991127714038157,3.499074886613016,201.82964945248204,None,202.81300036979155,None,,,,,,,,,,,,,,,,,,,,,,,,,,,,,,B,070,yes,SK,Vpav,2020_Feb_18_1421,Pavlovian,3.2.4,60.01516378498971,
CBblue.png,s,,,0,1,1,2,,,,,,,,,,,,,,,,,203.72965835767172,None,,,,,,,,,,,,,,,0.01645428543451999,1.016114378862767,205.37970492124987,None,206.37963005727943,None,s,1,4.239046088130635,206.37963005727943,None,205.37970492124987,None,159,4,205.37970492124987,None,0.011770698909458588,None,119,4,210.87960334171112,None,,,,,,,B,070,yes,SK,Vpav,2020_Feb_18_1421,Pavlovian,3.2.4,60.01516378498971,
CBgreen.png,n,red.png,1,0,2,2,1,0,0,0,0,,,,,,,,,,,,,213.096283818968,None,0.0032347272208426148,1.5063803723569436,111,4,117,4,214.76299667187413,217.76289313017514,2.0063805232930463,3.506367693782522,216.76290912932927,None,217.7462283502009,None,,,,,,,,,,,,,,,,,,,,,,,,,,,,,,B,070,yes,SK,Vpav,2020_Feb_18_1421,Pavlovian,3.2.4,60.01516378498971,
CBgreen.png,n,green.png,2,0,2,2,1,0,1,1,1,,,,,,,,,,,,,218.6295673436125,None,0.008587742537201848,1.5004295320268284,111,4,117,4,220.19624261359786,223.19621755831758,2.000421230579377,3.5003930056554964,222.1961994460671,None,223.1795265155797,None,,,,,,,,,,,,,,,,,,,,,,,,,,,,,,B,070,yes,SK,Vpav,2020_Feb_18_1421,Pavlovian,3.2.4,60.01516378498971,
CBgreen.png,n,blue.png,3,0,2,2,1,0,2,2,2,,,,,,,,,,,,,224.11286769755498,None,0.01625311870520818,1.51578174738097,111,4,117,4,225.79621997328468,228.7961532598274,1.999094478029292,None,227.7961843525245,None,228.76282400175114,None,,,,,,,,,,,,,,,,,,,,,,,,,,,,,,B,070,yes,SK,Vpav,2020_Feb_18_1421,Pavlovian,3.2.4,60.01516378498971,
CBgreen.png,n,yellow.png,4,0,2,2,1,0,3,3,3,,,,,,,,,,,,,229.61283041650677,None,0.013588927378805238,1.5104583757856744,111,4,117,4,231.162898563849,234.16278958847397,2.0104588285921636,3.5104475084353908,233.16279864460012,None,234.14612028043848,None,,,,,,,,,,,,,,,,,,,,,,,,,,,,,,B,070,yes,SK,Vpav,2020_Feb_18_1421,Pavlovian,3.2.4,60.01516378498971,
CBgreen.png,n,blue.png,3,0,2,2,1,1,0,4,2,,,,,,,,,,,,,235.14613205340174,None,0.0013890888803871349,1.5026561917511572,111,4,117,4,236.74618910699064,239.7460807353582,2.0026572482984193,3.5026453244008735,238.74612722346683,None,239.72944825556442,None,,,,,,,,,,,,,,,,,,,,,,,,,,,,,,B,070,yes,SK,Vpav,2020_Feb_18_1421,Pavlovian,3.2.4,60.01516378498971,
CBgreen.png,n,red.png,1,0,2,2,1,1,1,5,0,,,,,,,,,,,,,240.61278362652592,None,0.011465326362667838,1.506185454356455,111,4,117,4,242.24615786335744,245.24605341604547,2.006181077229485,3.5061830393897253,244.2460971873188,None,245.22939557910104,None,,,,,,,,,,,,,,,,,,,,,,,,,,,,,,B,070,yes,SK,Vpav,2020_Feb_18_1421,Pavlovian,3.2.4,60.01516378498971,
CBgreen.png,n,green.png,2,0,2,2,1,1,2,6,1,,,,,,,,,,,,,246.12937882526967,None,0.00148230659760884,1.5028891756683151,111,4,117,4,247.729399956228,250.72935044941005,2.0028820817024098,3.5028801195421693,249.72936192050292,None,250.71268808440254,None,,,,,,,,,,,,,,,,,,,,,,,,,,,,,,B,070,yes,SK,Vpav,2020_Feb_18_1421,Pavlovian,3.2.4,60.01516378498971,
CBgreen.png,n,yellow.png,4,0,2,2,1,1,3,7,3,,,,,,,,,,,,,251.61271238500558,None,0.005963156665529823,1.495200102639501,111,4,117,4,253.14618548454018,256.1459850422998,2.011862014840517,3.511849789070766,255.14598806100912,None,256.1459850422998,None,,,,,,,,,,,,,,,,,,,,,,,,,,,,,,B,070,yes,SK,Vpav,2020_Feb_18_1421,Pavlovian,3.2.4,60.01516378498971,
CBgreen.png,n,yellow.png,4,0,2,2,1,2,0,8,3,,,,,,,,,,,,,257.14600375829286,None,0.002217150793512701,1.5043104741653224,111,4,117,4,258.62937263691674,261.62928599998486,2.0043121344551764,3.504292663785236,260.62928992430534,None,261.61261759756053,None,,,,,,,,,,,,,,,,,,,,,,,,,,,,,,B,070,yes,SK,Vpav,2020_Feb_18_1421,Pavlovian,3.2.4,60.01516378498971,
CBgreen.png,n,green.png,2,0,2,2,1,2,1,9,1,,,,,,,,,,,,,262.645975533369,None,0.0014271849813667359,1.5027703593041224,111,4,117,4,264.1960140973679,267.1959135743782,2.0027804719775304,3.5027634162743198,266.19592866791936,None,267.17924939814475,None,,,,,,,,,,,,,,,,,,,,,,,,,,,,,,B,070,yes,SK,Vpav,2020_Feb_18_1421,Pavlovian,3.2.4,60.01516378498971,
CBgreen.png,n,blue.png,3,0,2,2,1,2,2,10,2,,,,,,,,,,,,,268.11261020172606,None,0.005576369552727556,1.5110370621951006,111,4,117,4,269.8126136732408,272.81254877100764,2.011018799008525,None,271.8125532990707,None,272.79588308542225,None,,,,,,,,,,,,,,,,,,,,,,,,,,,,,,B,070,yes,SK,Vpav,2020_Feb_18_1421,Pavlovian,3.2.4,60.01516378498971,
CBgreen.png,n,red.png,1,0,2,2,1,2,3,11,0,,,,,,,,,,,,,273.6125883160894,None,0.008076554448052775,1.4994265963323414,111,4,117,4,275.26260982438725,278.26252047061644,1.9993865984451986,3.4993822213182284,277.262556393247,None,278.24584784200124,None,,,,,,,,,,,,,,,,,,,,,,,,,,,,,,B,070,yes,SK,Vpav,2020_Feb_18_1421,Pavlovian,3.2.4,60.01516378498971,
CBgreen.png,n,,,0,2,2,1,,,,,,,,,,,,,,,,,279.1792065324844,None,,,,,,,,,,,,,,,0.016421079641077085,1.0161167938294966,280.74586489770445,None,281.7458344087481,None,n,1,3.4241469507269358,281.7458344087481,None,280.74586489770445,None,159,4,280.74586489770445,None,0.011317288899590494,None,119,4,285.4291462337842,None,,,,,,,B,070,yes,SK,Vpav,2020_Feb_18_1421,Pavlovian,3.2.4,60.01516378498971,
CBred.png,b,green.png,2,0,3,3,0,0,0,0,1,,,,,,,,,,,,,287.6457995426663,None,0.0007930448973638704,1.5015022904462967,111,4,117,4,289.29581742851406,292.295757959957,2.00151270499191,3.501495347418313,291.29576188427745,None,292.2790934818531,None,,,,,,,,,,,,,,,,,,,,,,,,,,,,,,B,070,yes,SK,Vpav,2020_Feb_18_1421,Pavlovian,3.2.4,60.01516378498971,
CBred.png,b,red.png,1,0,3,3,0,0,1,1,0,,,,,,,,,,,,,293.16241798546434,None,0.013574528140452458,1.5104506177049188,111,4,117,4,294.82916223293796,297.82905989872233,2.0104208834272868,None,296.82908676522675,None,297.81239360939435,None,,,,,,,,,,,,,,,,,,,,,,,,,,,,,,B,070,yes,SK,Vpav,2020_Feb_18_1421,Pavlovian,3.2.4,60.01516378498971,
CBred.png,b,yellow.png,4,0,3,3,0,0,2,2,3,,,,,,,,,,,,,298.67911159410505,None,0.006289509234193247,1.4958286279234017,111,4,117,4,300.22909129328946,303.22902608918776,2.0125047280525905,3.512475295645345,302.2290351453139,None,303.22902608918776,None,,,,,,,,,,,,,,,,,,,,,,,,,,,,,,B,070,yes,SK,Vpav,2020_Feb_18_1421,Pavlovian,3.2.4,60.01516378498971,
CBred.png,b,blue.png,3,0,3,3,0,0,3,3,2,,,,,,,,,,,,,304.1956753982813,None,0.0016065566378529184,1.5031103262499528,111,4,117,4,305.86243987110174,308.8623547435236,2.0031005154469312,None,307.86233240508045,None,308.84567396439525,None,,,,,,,,,,,,,,,,,,,,,,,,,,,,,,B,070,yes,SK,Vpav,2020_Feb_18_1421,Pavlovian,3.2.4,60.01516378498971,
CBred.png,b,green.png,2,0,3,3,0,1,0,4,1,,,,,,,,,,,,,309.66235866784336,None,0.0018124627404176863,1.5034843744124373,111,4,117,4,311.2623532341695,314.2622910487753,2.0035258816533315,3.503448149911492,313.2622970861921,None,314.24563019312154,None,,,,,,,,,,,,,,,,,,,,,,,,,,,,,,B,070,yes,SK,Vpav,2020_Feb_18_1421,Pavlovian,3.2.4,60.01516378498971,
CBred.png,b,yellow.png,4,0,3,3,0,1,1,5,3,,,,,,,,,,,,,315.1623343672418,None,0.0036579803345375694,1.5072217165907205,111,4,117,4,316.7123306693229,319.7122558053543,2.0072300180381717,3.507205113693999,318.7122630502545,None,319.6955916291208,None,,,,,,,,,,,,,,,,,,,,,,,,,,,,,,B,070,yes,SK,Vpav,2020_Feb_18_1421,Pavlovian,3.2.4,60.01516378498971,
CBred.png,b,red.png,1,0,3,3,0,1,2,6,0,,,,,,,,,,,,,320.6956245330439,None,0.009977314410207327,1.5031606179327355,111,4,117,4,322.2790077505342,325.27892383043945,2.0031438641017303,3.503133449557936,324.27892654727657,None,325.2622496924687,None,,,,,,,,,,,,,,,,,,,,,,,,,,,,,,B,070,yes,SK,Vpav,2020_Feb_18_1421,Pavlovian,3.2.4,60.01516378498971,
CBred.png,b,blue.png,3,0,3,3,0,1,3,7,2,,,,,,,,,,,,,326.17891401963607,None,0.0019326375222590286,1.5037829548655282,111,4,117,4,327.82894247096374,330.8288546265485,2.0037677103864553,None,329.82888722859934,None,330.81219014844464,None,,,,,,,,,,,,,,,,,,,,,,,,,,,,,,B,070,yes,SK,Vpav,2020_Feb_18_1421,Pavlovian,3.2.4,60.01516378498971,
CBred.png,b,red.png,1,0,3,3,0,2,0,8,0,,,,,,,,,,,,,331.6622161848063,None,0.005931037607297185,1.511807104532636,111,4,117,4,333.3955839314149,336.3955374433044,2.011808161079898,None,335.39552989653384,None,336.37882587334934,None,,,,,,,,,,,,,,,,,,,,,,,,,,,,,,B,070,yes,SK,Vpav,2020_Feb_18_1421,Pavlovian,3.2.4,60.01516378498971,
CBred.png,b,blue.png,3,0,3,3,0,2,1,9,2,,,,,,,,,,,,,337.1788445893417,None,0.00559656471159542,1.5110780864415574,111,4,117,4,338.86219475197504,341.8621177749101,2.0110764261517033,None,340.862126529164,None,341.8454514855821,None,,,,,,,,,,,,,,,,,,,,,,,,,,,,,,B,070,yes,SK,Vpav,2020_Feb_18_1421,Pavlovian,3.2.4,60.01516378498971,
CBred.png,b,yellow.png,4,0,3,3,0,2,2,10,3,,,,,,,,,,,,,342.6621467545119,None,0.0131475016441982,1.5095922177715693,111,4,117,4,344.21215784826563,347.21208087119885,2.0095606722679804,3.5095611250744696,346.212090832938,None,347.195423637997,None,,,,,,,,,,,,,,,,,,,,,,,,,,,,,,B,070,yes,SK,Vpav,2020_Feb_18_1421,Pavlovian,3.2.4,60.01516378498971,
CBred.png,b,green.png,2,0,3,3,0,2,3,11,1,,,,,,,,,,,,,348.19541095942077,None,0.011723878740667715,1.506691238955682,111,4,117,4,349.7787845170442,352.77871991668326,2.0066868618287117,3.506682182831355,351.7787250484889,None,352.7620490992922,None,,,,,,,,,,,,,,,,,,,,,,,,,,,,,,B,070,yes,SK,Vpav,2020_Feb_18_1421,Pavlovian,3.2.4,60.01516378498971,
CBred.png,b,,,0,3,3,0,,,,,,,,,,,,,,,,,353.7120834371017,None,,,,,,,,,,,,,,,0.0162653142833733,1.0157140981209523,355.3454090727282,None,356.34536409397333,None,b,1,3.179936456186624,356.34536409397333,None,355.3454090727282,None,159,4,355.3454090727282,None,0.011840431074233493,None,119,4,359.77869667262894,None,,,,,,,B,070,yes,SK,Vpav,2020_Feb_18_1421,Pavlovian,3.2.4,60.01516378498971,
CBblue.png,s,yellow.png,4,1,0,4,2,0,0,0,3,,,,,,,,,,,,,361.9953807723359,None,0.009045378736118437,1.5013082780551485,111,4,117,4,363.5620457787136,366.56197423532285,2.0013029953152,3.501294090125157,365.5619757446784,None,366.54532968069543,None,,,,,,,,,,,,,,,,,,,,,,,,,,,,,,B,070,yes,SK,Vpav,2020_Feb_18_1421,Pavlovian,3.2.4,60.01516378498971,
CBblue.png,s,blue.png,3,1,0,4,2,0,1,1,2,,,,,,,,,,,,,367.54529888987054,None,0.002053627358691301,1.5040515595428587,111,4,117,4,369.2120835880378,372.21194653867315,2.0040112597853295,None,371.2119731033072,None,372.1952890035991,None,,,,,,,,,,,,,,,,,,,,,,,,,,,,,,B,070,yes,SK,Vpav,2020_Feb_18_1421,Pavlovian,3.2.4,60.01516378498971,
CBblue.png,s,green.png,2,1,0,4,2,0,2,2,1,,,,,,,,,,,,,373.01198004633807,None,0.003390341644262662,1.5067095625145157,111,4,117,4,374.5953031915287,377.5952570052905,2.0067468435645424,3.5066968839400943,376.59523738368625,None,377.57856475506924,None,,,,,,,,,,,,,,,,,,,,,,,,,,,,,,B,070,yes,SK,Vpav,2020_Feb_18_1421,Pavlovian,3.2.4,60.01516378498971,
CBblue.png,s,red.png,1,1,0,4,2,0,3,3,0,,,,,,,,,,,,,378.5118848060865,None,7.555827687610872e-05,1.5000343529063684,111,4,117,4,380.2119350675821,383.2118659391581,2.000032994486901,None,382.2118922019217,None,383.19519602738,None,,,,,,,,,,,,,,,,,,,,,,,,,,,,,,B,070,yes,SK,Vpav,2020_Feb_18_1421,Pavlovian,3.2.4,60.01516378498971,
CBblue.png,s,red.png,1,1,0,4,2,1,0,4,0,,,,,,,,,,,,,384.0285270966815,None,0.006794478782467195,1.4968199114027811,111,4,117,4,385.6286843713915,388.62849660772736,2.013492690954081,3.5135154822019103,387.62850385262755,None,388.62849660772736,None,,,,,,,,,,,,,,,,,,,,,,,,,,,,,,B,070,yes,SK,Vpav,2020_Feb_18_1421,Pavlovian,3.2.4,60.01516378498971,
CBblue.png,s,blue.png,3,1,0,4,2,1,1,5,2,,,,,,,,,,,,,389.5284864950536,None,0.01389710732473759,1.5110750677340548,111,4,117,4,391.21188042895847,394.2117919808006,2.0110531820973847,None,393.2117998294434,None,394.195127804569,None,,,,,,,,,,,,,,,,,,,,,,,,,,,,,,B,070,yes,SK,Vpav,2020_Feb_18_1421,Pavlovian,3.2.4,60.01516378498971,
CBblue.png,s,green.png,2,1,0,4,2,1,2,6,1,,,,,,,,,,,,,395.01182579033593,None,0.013327929846127518,1.509931430038705,111,4,117,4,396.54519474442895,399.54514282264427,2.0099026013740513,3.509900035471219,398.54514282264427,None,399.52842280030563,None,,,,,,,,,,,,,,,,,,,,,,,,,,,,,,B,070,yes,SK,Vpav,2020_Feb_18_1421,Pavlovian,3.2.4,60.01516378498971,
CBblue.png,s,yellow.png,4,1,0,4,2,1,3,7,3,,,,,,,,,,,,,400.5117785475486,None,0.014393926359844045,1.512015335039905,111,4,117,4,402.0284718543171,405.0283933678984,2.0120166934593726,3.5120201649733644,404.0283954809929,None,405.0117264748278,None,,,,,,,,,,,,,,,,,,,,,,,,,,,,,,B,070,yes,SK,Vpav,2020_Feb_18_1421,Pavlovian,3.2.4,60.01516378498971,
CBblue.png,s,green.png,2,1,0,4,2,2,0,8,1,,,,,,,,,,,,,406.0450650909006,None,0.0060046639082429465,1.4952397986544383,111,4,117,4,407.644623151984,410.6450264514333,2.011910465111214,3.5118949187617545,409.6450294701408,None,410.6450264514333,None,,,,,,,,,,,,,,,,,,,,,,,,,,,,,,B,070,yes,SK,Vpav,2020_Feb_18_1421,Pavlovian,3.2.4,60.01516378498971,
CBblue.png,s,blue.png,3,1,0,4,2,2,1,9,2,,,,,,,,,,,,,411.5116888919074,None,0.006281811527514947,1.512512274823166,111,4,117,4,413.16174903967294,416.1616575728076,2.012497030345912,3.5124500894307857,415.16165938403356,None,416.14499339657596,None,,,,,,,,,,,,,,,,,,,,,,,,,,,,,,B,070,yes,SK,Vpav,2020_Feb_18_1421,Pavlovian,3.2.4,60.01516378498971,
CBblue.png,s,red.png,1,1,0,4,2,2,2,10,0,,,,,,,,,,,,,417.0116516108592,None,0.006973276886128588,1.4971671534349298,111,4,117,4,418.6778881115715,421.6782929203746,2.0138366124065215,None,420.678319786879,None,421.6782929203746,None,,,,,,,,,,,,,,,,,,,,,,,,,,,,,,B,070,yes,SK,Vpav,2020_Feb_18_1421,Pavlovian,3.2.4,60.01516378498971,
CBblue.png,s,yellow.png,4,1,0,4,2,2,3,11,3,,,,,,,,,,,,,422.5283126174472,None,0.015164813938099542,1.5136061038319895,111,4,117,4,424.11166776094797,427.1116424037973,2.0135679171708034,3.513642328332935,426.1116227821931,None,427.0949842649825,None,,,,,,,,,,,,,,,,,,,,,,,,,,,,,,B,070,yes,SK,Vpav,2020_Feb_18_1421,Pavlovian,3.2.4,60.01516378498971,
CBblue.png,s,,,1,0,4,2,,,,,,,,,,,,,,,,,428.0949181552678,None,,,,,,,,,,,,,,,0.016478133229611558,1.0162013176668552,429.72827427984885,None,430.7282730723655,None,s,1,2.991341438566451,430.7282730723655,None,429.72827427984885,None,159,4,429.72827427984885,None,0.012413683805789333,None,119,4,433.9782130755357,None,,,,,,,B,070,yes,SK,Vpav,2020_Feb_18_1421,Pavlovian,3.2.4,60.01516378498971,
CByellow.png,k,blue.png,3,1,1,5,3,0,0,0,2,,,,,,,,,,,,,436.1948917415684,None,0.00865071279440599,1.500503973376908,111,4,117,4,437.8949151365596,440.89486079980634,2.0005098598576296,None,439.8948417819429,None,440.8781833412577,None,,,,,,,,,,,,,,,,,,,,,,,,,,,,,,B,070,yes,SK,Vpav,2020_Feb_18_1421,Pavlovian,3.2.4,60.01516378498971,
CByellow.png,k,yellow.png,4,1,1,5,3,0,1,1,3,,,,,,,,,,,,,441.7115452013859,None,0.002413366841210518,1.5047080380663829,111,4,117,4,443.294908797272,446.29480676492494,2.0047093964858504,3.5046902276862966,445.2948746858656,None,446.27818635996664,None,,,,,,,,,,,,,,,,,,,,,,,,,,,,,,B,070,yes,SK,Vpav,2020_Feb_18_1421,Pavlovian,3.2.4,60.01516378498971,
CByellow.png,k,green.png,2,1,1,5,3,0,2,2,1,,,,,,,,,,,,,447.24480276513714,None,0.01314529798582953,1.5095266212374554,111,4,117,4,448.79481657572796,451.7948126514075,2.0095412619739363,3.5095142445334204,450.7947957466404,None,451.77810319454875,None,,,,,,,,,,,,,,,,,,,,,,,,,,,,,,B,070,yes,SK,Vpav,2020_Feb_18_1421,Pavlovian,3.2.4,60.01516378498971,
CByellow.png,k,red.png,1,1,1,5,3,0,3,3,0,,,,,,,,,,,,,452.7114727523822,None,0.000533073725819122,1.5009549382320984,111,4,117,4,454.3281643988612,457.3280949685686,2.000941203108596,3.5009238455349987,456.32809376108526,None,457.3114063407975,None,,,,,,,,,,,,,,,,,,,,,,,,,,,,,,B,070,yes,SK,Vpav,2020_Feb_18_1421,Pavlovian,3.2.4,60.01516378498971,
CByellow.png,k,red.png,1,1,1,5,3,1,0,4,0,,,,,,,,,,,,,458.2280966288581,None,0.001291675158427097,1.5024956870220194,111,4,117,4,459.8781308157304,462.87803300957785,2.0024870837041817,None,461.87803934886506,None,462.86139117178755,None,,,,,,,,,,,,,,,,,,,,,,,,,,,,,,B,070,yes,SK,Vpav,2020_Feb_18_1421,Pavlovian,3.2.4,60.01516378498971,
CByellow.png,k,green.png,2,1,1,5,3,1,1,5,1,,,,,,,,,,,,,463.728042443041,None,0.008427056684013223,1.5000415374288423,111,4,117,4,465.24470918517545,468.2446669232577,2.000054668811572,3.500039424332499,467.2446826205414,None,468.22804289584747,None,,,,,,,,,,,,,,,,,,,,,,,,,,,,,,B,070,yes,SK,Vpav,2020_Feb_18_1421,Pavlovian,3.2.4,60.01516378498971,
CByellow.png,k,yellow.png,4,1,1,5,3,1,2,6,3,,,,,,,,,,,,,469.2113587961394,None,0.01592269087632303,1.5150857539592835,111,4,117,4,470.74468488457205,473.744630849691,2.0150997909531725,3.5150936026020645,472.74464050955794,None,473.7279594285592,None,,,,,,,,,,,,,,,,,,,,,,,,,,,,,,B,070,yes,SK,Vpav,2020_Feb_18_1421,Pavlovian,3.2.4,60.01516378498971,
CByellow.png,k,blue.png,3,1,1,5,3,1,3,7,2,,,,,,,,,,,,,474.74466073490476,None,0.003482382064248668,1.506847487304185,111,4,117,4,476.4280326322387,479.42793754292325,2.0068479401106742,None,478.42792999615085,None,479.41126400869325,None,,,,,,,,,,,,,,,,,,,,,,,,,,,,,,B,070,yes,SK,Vpav,2020_Feb_18_1421,Pavlovian,3.2.4,60.01516378498971,
CByellow.png,k,blue.png,3,1,1,5,3,2,0,8,2,,,,,,,,,,,,,480.2112920826821,None,0.004996445473807398,1.509961768060748,111,4,117,4,481.8779617680575,484.8779237323306,2.0099051672768837,None,483.8779306753604,None,484.86122936901484,None,,,,,,,,,,,,,,,,,,,,,,,,,,,,,,B,070,yes,SK,Vpav,2020_Feb_18_1421,Pavlovian,3.2.4,60.01516378498971,
CByellow.png,k,red.png,1,1,1,5,3,2,1,9,0,,,,,,,,,,,,,485.7112336706741,None,0.0027981012335658306,1.5054936569413258,111,4,117,4,487.344602171961,490.34455236327085,2.005481733041961,3.5054987887451716,489.3446067000241,None,490.32789030013555,None,,,,,,,,,,,,,,,,,,,,,,,,,,,,,,B,070,yes,SK,Vpav,2020_Feb_18_1421,Pavlovian,3.2.4,60.01516378498971,
CByellow.png,k,yellow.png,4,1,1,5,3,2,2,10,3,,,,,,,,,,,,,491.22788833797495,None,0.0008729199234949192,1.5016784622712294,111,4,117,4,492.81125525443895,495.8111870316279,2.0016743870146456,3.5016838959472807,494.81117676802023,None,495.79449568701966,None,,,,,,,,,,,,,,,,,,,,,,,,,,,,,,B,070,yes,SK,Vpav,2020_Feb_18_1421,Pavlovian,3.2.4,60.01516378498971,
CByellow.png,k,green.png,2,1,1,5,3,2,3,11,1,,,,,,,,,,,,,496.7444871591688,None,0.008222991995353368,1.499747817098978,111,4,117,4,498.32784200080096,501.32782147358193,1.999697857472711,3.4997103851128486,500.32780698378156,None,501.31113827948684,None,,,,,,,,,,,,,,,,,,,,,,,,,,,,,,B,070,yes,SK,Vpav,2020_Feb_18_1421,Pavlovian,3.2.4,60.01516378498971,
CByellow.png,k,,,1,1,5,3,,,,,,,,,,,,,,,,,502.2778150588274,None,,,,,,,,,,,,,,,0.0164567003994307,1.0161590557472664,503.82784577418533,None,504.82779385240065,None,k,1,2.533239149628571,504.82779385240065,None,503.82784577418533,None,159,4,503.82784577418533,None,0.0122467492310534,None,119,4,507.6110877161209,None,,,,,,,B,070,yes,SK,Vpav,2020_Feb_18_1421,Pavlovian,3.2.4,60.01516378498971,
CBred.png,b,red.png,1,1,2,6,0,0,0,0,0,,,,,,,,,,,,,509.84444535005787,None,0.013644441427459242,1.51050905989905,111,4,117,4,511.51113556265045,514.511110205498,2.010506192125831,None,513.5110999418903,None,514.4943762971016,None,,,,,,,,,,,,,,,,,,,,,,,,,,,,,,B,070,yes,SK,Vpav,2020_Feb_18_1421,Pavlovian,3.2.4,60.01516378498971,
CBred.png,b,green.png,2,1,2,6,0,0,1,1,1,,,,,,,,,,,,,515.3611054510329,None,0.011675790714434697,1.506568890701601,111,4,117,4,516.9444023334618,519.9443464873548,2.006572362215593,3.506557117738339,518.9443516191604,None,519.9277128000795,None,,,,,,,,,,,,,,,,,,,,,,,,,,,,,,B,070,yes,SK,Vpav,2020_Feb_18_1421,Pavlovian,3.2.4,60.01516378498971,
CBred.png,b,blue.png,3,1,2,6,0,0,2,2,2,,,,,,,,,,,,,520.8443677692503,None,0.005326299746229779,1.5105657210606296,111,4,117,4,522.5777219316715,525.5776730285943,2.0105628532874107,None,524.5776558219568,None,525.5610094561052,None,,,,,,,,,,,,,,,,,,,,,,,,,,,,,,B,070,yes,SK,Vpav,2020_Feb_18_1421,Pavlovian,3.2.4,60.01516378498971,
CBred.png,b,yellow.png,4,1,2,6,0,0,3,3,3,,,,,,,,,,,,,526.3443229414297,None,0.008077460061031161,1.4994157289820578,111,4,117,4,527.8776918955227,530.877607069815,1.9994022957289417,3.4993933905388985,529.8776493317328,None,530.8609456104205,None,,,,,,,,,,,,,,,,,,,,,,,,,,,,,,B,070,yes,SK,Vpav,2020_Feb_18_1421,Pavlovian,3.2.4,60.01516378498971,
CBred.png,b,blue.png,3,1,2,6,0,1,0,4,2,,,,,,,,,,,,,531.8776517466995,None,0.015221324159938376,1.5136755945004552,111,4,117,4,533.4776638215335,536.477597108078,2.0136703117605066,3.513647520512677,535.4776016361393,None,536.4609169326905,None,,,,,,,,,,,,,,,,,,,,,,,,,,,,,,B,070,yes,SK,Vpav,2020_Feb_18_1421,Pavlovian,3.2.4,60.01516378498971,
CBred.png,b,red.png,1,1,2,6,0,1,1,5,0,,,,,,,,,,,,,537.3442634728726,None,0.012441576673154486,1.508092674350337,111,4,117,4,539.0109210834144,542.0108745953039,2.0081012776699936,None,541.0108984431008,None,541.9942321537728,None,,,,,,,,,,,,,,,,,,,,,,,,,,,,,,B,070,yes,SK,Vpav,2020_Feb_18_1421,Pavlovian,3.2.4,60.01516378498971,
CBred.png,b,green.png,2,1,2,6,0,1,2,6,1,,,,,,,,,,,,,542.8608695389685,None,0.003882481683831429,1.5077151848618087,111,4,117,4,544.4609579871249,547.4608444836886,2.007724090051852,3.507635792828296,546.4608707464504,None,547.4442035515112,None,,,,,,,,,,,,,,,,,,,,,,,,,,,,,,B,070,yes,SK,Vpav,2020_Feb_18_1421,Pavlovian,3.2.4,60.01516378498971,
CBred.png,b,yellow.png,4,1,2,6,0,1,3,7,3,,,,,,,,,,,,,548.344200985608,None,0.016258884439594112,1.5157742307983426,111,4,117,4,549.9108943678457,552.9108044103323,1.9991168466603995,3.4990780562566215,551.9108125608454,None,552.8774811896728,None,,,,,,,,,,,,,,,,,,,,,,,,,,,,,,B,070,yes,SK,Vpav,2020_Feb_18_1421,Pavlovian,3.2.4,60.01516378498971,
CBred.png,b,red.png,1,1,2,6,0,2,0,8,0,,,,,,,,,,,,,553.8774778690931,None,0.013940878596258699,1.5111212539723056,111,4,117,4,555.5275392243439,558.5274341732893,2.011090614081695,None,557.5274634547604,None,558.5107805625357,None,,,,,,,,,,,,,,,,,,,,,,,,,,,,,,B,070,yes,SK,Vpav,2020_Feb_18_1421,Pavlovian,3.2.4,60.01516378498971,
CBred.png,b,yellow.png,4,1,2,6,0,2,1,9,3,,,,,,,,,,,,,559.3607966371583,None,0.014729093560163165,1.5127227089924418,111,4,117,4,560.8941722324107,563.8941018965033,2.0127086719967338,3.5126985593233258,562.8941067264368,None,563.877406929445,None,,,,,,,,,,,,,,,,,,,,,,,,,,,,,,B,070,yes,SK,Vpav,2020_Feb_18_1421,Pavlovian,3.2.4,60.01516378498971,
CBred.png,b,blue.png,3,1,2,6,0,2,2,10,2,,,,,,,,,,,,,564.877434399692,None,0.007206140053312993,1.4976475506973657,111,4,117,4,566.4608167115694,569.4607234334799,2.0143432724325976,3.514295727774879,568.4607373195377,None,569.4607234334799,None,,,,,,,,,,,,,,,,,,,,,,,,,,,,,,B,070,yes,SK,Vpav,2020_Feb_18_1421,Pavlovian,3.2.4,60.01516378498971,
CBred.png,b,green.png,2,1,2,6,0,2,3,11,1,,,,,,,,,,,,,570.3440838597216,None,0.00829070162581047,1.4998170360850054,111,4,117,4,571.8940840861233,574.8940065053175,1.9998174888896756,3.499801640671649,573.8940013735119,None,574.8773592338512,None,,,,,,,,,,,,,,,,,,,,,,,,,,,,,,B,070,yes,SK,Vpav,2020_Feb_18_1421,Pavlovian,3.2.4,60.01516378498971,
CBred.png,b,,,1,2,6,0,,,,,,,,,,,,,,,,,575.9106586067155,None,,,,,,,,,,,,,,,0.01641172164454474,1.0160431373442407,577.4606684929859,None,578.4606479657687,None,b,1,2.605626268801643,578.4606479657687,None,577.4606684929859,None,159,4,577.4606684929859,None,0.012561902391098556,None,119,4,581.327293803346,None,,,,,,,B,070,yes,SK,Vpav,2020_Feb_18_1421,Pavlovian,3.2.4,60.01516378498971,
CBgreen.png,n,blue.png,3,1,3,7,1,0,0,0,2,,,,,,,,,,,,,583.5440029583351,None,0.0016972990106296493,1.5033471741116955,111,4,117,4,585.1940338246277,588.1939142837746,2.0033144211265608,3.5033055159365176,587.1939212268026,None,588.1772522206375,None,,,,,,,,,,,,,,,,,,,,,,,,,,,,,,B,070,yes,SK,Vpav,2020_Feb_18_1421,Pavlovian,3.2.4,60.01516378498971,
CBgreen.png,n,green.png,2,1,3,7,1,0,1,1,1,,,,,,,,,,,,,589.0606029870123,None,0.01476332571473904,1.5127228297405964,111,4,117,4,590.6606383059006,593.6605498577428,2.012719056354399,3.5127237353517557,592.6605595176097,None,593.6438896058316,None,,,,,,,,,,,,,,,,,,,,,,,,,,,,,,B,070,yes,SK,Vpav,2020_Feb_18_1421,Pavlovian,3.2.4,60.01516378498971,
CBgreen.png,n,red.png,1,1,3,7,1,0,2,2,0,,,,,,,,,,,,,594.5605844219554,None,0.00041504222645016853,1.5007246107779793,111,4,117,4,596.2272667859052,599.2271937331607,2.000723554230717,None,598.2272435418508,None,599.2105144633861,None,,,,,,,,,,,,,,,,,,,,,,,,,,,,,,B,070,yes,SK,Vpav,2020_Feb_18_1421,Pavlovian,3.2.4,60.01516378498971,
CBgreen.png,n,yellow.png,4,1,3,7,1,0,3,3,3,,,,,,,,,,,,,600.0771926011457,None,0.008819669907097705,1.5009017485881486,111,4,117,4,601.6272046005124,604.6271529805981,2.000899786427908,3.5008833344672894,603.6271638479484,None,604.6104809557237,None,,,,,,,,,,,,,,,,,,,,,,,,,,,,,,B,070,yes,SK,Vpav,2020_Feb_18_1421,Pavlovian,3.2.4,60.01516378498971,
CBgreen.png,n,blue.png,3,1,3,7,1,1,0,4,2,,,,,,,,,,,,,605.593833382387,None,0.0065065241851698374,1.4961884277836361,111,4,117,4,607.2766924011557,610.2771129072426,2.0128557736588846,None,609.2771222652391,None,610.2771129072426,None,,,,,,,,,,,,,,,,,,,,,,,,,,,,,,B,070,yes,SK,Vpav,2020_Feb_18_1421,Pavlovian,3.2.4,60.01516378498971,
CBgreen.png,n,red.png,1,1,3,7,1,1,1,5,0,,,,,,,,,,,,,611.0604635226828,None,0.004559819484711625,1.5090137728602713,111,4,117,4,612.7271473959863,615.7270927573645,2.0090259986300225,None,614.7270846068513,None,615.7104346185479,None,,,,,,,,,,,,,,,,,,,,,,,,,,,,,,B,070,yes,SK,Vpav,2020_Feb_18_1421,Pavlovian,3.2.4,60.01516378498971,
CBgreen.png,n,green.png,2,1,3,7,1,1,2,6,1,,,,,,,,,,,,,616.5770822673512,None,0.015235451714033843,1.5137718309233605,111,4,117,4,618.1604522025245,621.1604174873773,2.013821488677422,3.5138252620636194,620.1604051106733,None,621.1438139871861,None,,,,,,,,,,,,,,,,,,,,,,,,,,,,,,B,070,yes,SK,Vpav,2020_Feb_18_1421,Pavlovian,3.2.4,60.01516378498971,
CBgreen.png,n,yellow.png,4,1,3,7,1,1,3,7,3,,,,,,,,,,,,,622.0604067709628,None,0.004099013636732707,1.5080793316574272,111,4,117,4,623.6270886821076,626.6270732866942,2.0080818975602597,3.5080657474700274,625.6270228742633,None,626.6103780177655,None,,,,,,,,,,,,,,,,,,,,,,,,,,,,,,B,070,yes,SK,Vpav,2020_Feb_18_1421,Pavlovian,3.2.4,60.01516378498971,
CBgreen.png,n,blue.png,3,1,3,7,1,2,0,8,2,,,,,,,,,,,,,627.5936857675442,None,0.014247579374568886,1.5117129208283586,111,4,117,4,629.2270621174739,632.2269800086033,2.0116967707381264,None,631.22698242357,None,632.2103200585625,None,,,,,,,,,,,,,,,,,,,,,,,,,,,,,,B,070,yes,SK,Vpav,2020_Feb_18_1421,Pavlovian,3.2.4,60.01516378498971,
CBgreen.png,n,green.png,2,1,3,7,1,2,1,9,1,,,,,,,,,,,,,633.060318322805,None,0.010032405836682301,1.5032908752018557,111,4,117,4,634.643682824304,637.6436342230973,2.0032635558891343,3.5032504245082237,636.6436161108468,None,637.626942878489,None,,,,,,,,,,,,,,,,,,,,,,,,,,,,,,B,070,yes,SK,Vpav,2020_Feb_18_1421,Pavlovian,3.2.4,60.01516378498971,
CBgreen.png,n,yellow.png,4,1,3,7,1,2,2,10,3,,,,,,,,,,,,,638.5602952296867,None,0.006162693292935728,1.4955590270710672,111,4,117,4,640.0437042571339,643.0437374629273,2.0119359731961595,3.5122343725251994,642.0432915996898,None,643.0437374629273,None,,,,,,,,,,,,,,,,,,,,,,,,,,,,,,B,070,yes,SK,Vpav,2020_Feb_18_1421,Pavlovian,3.2.4,60.01516378498971,
CBgreen.png,n,red.png,1,1,3,7,1,2,3,11,0,,,,,,,,,,,,,644.0935920366464,None,0.009737417647556867,1.5026719795951067,111,4,117,4,645.7269982717899,648.7268992581521,2.0026694136940932,None,647.7269055974411,None,648.7102058004475,None,,,,,,,,,,,,,,,,,,,,,,,,,,,,,,B,070,yes,SK,Vpav,2020_Feb_18_1421,Pavlovian,3.2.4,60.01516378498971,
CBgreen.png,n,,,1,3,7,1,,,,,,,,,,,,,,,,,649.6602075362061,None,,,,,,,,,,,,,,,0.01648507626123319,1.016235127201071,651.2435569441623,None,652.2435210215317,None,n,1,2.702046835262081,652.2435210215317,None,651.2435569441623,None,159,4,651.2435569441623,None,0.011285290589512442,None,119,4,655.2101685193993,None,,,,,,,B,070,yes,SK,Vpav,2020_Feb_18_1421,Pavlovian,3.2.4,60.01516378498971,
CBred.png,b,blue.png,3,2,0,8,0,0,0,0,2,,,,,,,,,,,,,657.426828469439,None,0.006761876731616212,1.4967752345164627,111,4,117,4,659.0601851977626,662.0601278423037,2.013441976650938,3.51343578829983,661.0601326722372,None,662.0601278423037,None,,,,,,,,,,,,,,,,,,,,,,,,,,,,,,B,070,yes,SK,Vpav,2020_Feb_18_1421,Pavlovian,3.2.4,60.01516378498971,
CBred.png,b,green.png,2,2,0,8,0,0,1,1,1,,,,,,,,,,,,,662.9601624065144,None,0.00981635687276139,1.5028333295613265,111,4,117,4,664.5601787075393,667.5601011267336,2.002829254304743,3.502822462211043,666.5601527466479,None,667.5434438935299,None,,,,,,,,,,,,,,,,,,,,,,,,,,,,,,B,070,yes,SK,Vpav,2020_Feb_18_1421,Pavlovian,3.2.4,60.01516378498971,
CBred.png,b,red.png,1,2,0,8,0,0,2,2,0,,,,,,,,,,,,,668.4434479687861,None,0.012505784601671621,1.5081918992982537,111,4,117,4,670.1101710853018,673.1100835427569,2.0082083512588724,None,672.1100883726904,None,673.0934148384622,None,,,,,,,,,,,,,,,,,,,,,,,,,,,,,,B,070,yes,SK,Vpav,2020_Feb_18_1421,Pavlovian,3.2.4,60.01516378498971,
CBred.png,b,yellow.png,4,2,0,8,0,0,3,3,3,,,,,,,,,,,,,673.9601029379573,None,0.007763333258480998,1.4988021463032055,111,4,117,4,675.5100802221768,678.5100267910384,2.0154679828247026,3.5154479084139894,677.5100446014167,None,678.5100267910384,None,,,,,,,,,,,,,,,,,,,,,,,,,,,,,,B,070,yes,SK,Vpav,2020_Feb_18_1421,Pavlovian,3.2.4,60.01516378498971,
CBred.png,b,blue.png,3,2,0,8,0,1,0,4,2,,,,,,,,,,,,,679.4767171545664,None,0.008267336821518256,1.4997640879373648,111,4,117,4,681.1595900593929,684.1599981887757,1.999768465064335,None,683.1600042261925,None,684.1433309938348,None,,,,,,,,,,,,,,,,,,,,,,,,,,,,,,B,070,yes,SK,Vpav,2020_Feb_18_1421,Pavlovian,3.2.4,60.01516378498971,
CBred.png,b,green.png,2,2,0,8,0,1,1,5,1,,,,,,,,,,,,,684.9433364275101,None,0.0027699064958142117,1.505089633001262,111,4,117,4,686.5767320971718,689.5766204049596,2.0054867440976523,3.5054102198373585,688.5766478752066,None,689.5599658885949,None,,,,,,,,,,,,,,,,,,,,,,,,,,,,,,B,070,yes,SK,Vpav,2020_Feb_18_1421,Pavlovian,3.2.4,60.01516378498971,
CBred.png,b,red.png,1,2,0,8,0,1,2,6,0,,,,,,,,,,,,,690.4433305410275,None,0.014373670828717877,1.5119790803546493,111,4,117,4,692.1100023394993,695.1099298904974,2.0120076071489166,None,694.1099241549509,None,695.093275676003,None,,,,,,,,,,,,,,,,,,,,,,,,,,,,,,B,070,yes,SK,Vpav,2020_Feb_18_1421,Pavlovian,3.2.4,60.01516378498971,
CBred.png,b,yellow.png,4,2,0,8,0,1,3,7,3,,,,,,,,,,,,,695.9599504931812,None,0.013871780360204866,1.5110337416153925,111,4,117,4,697.5266158014292,700.5265475786182,2.0110302701014007,3.5110271004577953,699.526555427261,None,700.5098840061273,None,,,,,,,,,,,,,,,,,,,,,,,,,,,,,,B,070,yes,SK,Vpav,2020_Feb_18_1421,Pavlovian,3.2.4,60.01516378498971,
CBred.png,b,blue.png,3,2,0,8,0,2,0,8,2,,,,,,,,,,,,,701.4932258673125,None,0.013756948692389415,1.510736881826233,111,4,117,4,703.1099395503643,706.1098495928527,2.010716203674747,None,705.1098547246565,None,706.0931839072655,None,,,,,,,,,,,,,,,,,,,,,,,,,,,,,,B,070,yes,SK,Vpav,2020_Feb_18_1421,Pavlovian,3.2.4,60.01516378498971,
CBred.png,b,yellow.png,4,2,0,8,0,2,1,9,3,,,,,,,,,,,,,706.9431972650509,None,0.012782841664375155,1.5087424513458245,111,4,117,4,708.5265647852575,711.5264893175463,2.008733848027987,3.5087249428379437,710.5264938456075,None,711.5098154814459,None,,,,,,,,,,,,,,,,,,,,,,,,,,,,,,B,070,yes,SK,Vpav,2020_Feb_18_1421,Pavlovian,3.2.4,60.01516378498971,
CBred.png,b,red.png,1,2,0,8,0,2,2,10,0,,,,,,,,,,,,,712.4765067505869,None,0.007142535867387778,1.4974565570137202,111,4,117,4,714.0432058683691,717.0431177220835,2.0141335627577064,3.51411137525065,716.043126174467,None,717.0431177220835,None,,,,,,,,,,,,,,,,,,,,,,,,,,,,,,B,070,yes,SK,Vpav,2020_Feb_18_1421,Pavlovian,3.2.4,60.01516378498971,
CBred.png,b,green.png,2,2,0,8,0,2,3,11,1,,,,,,,,,,,,,717.959776011834,None,0.006184850612044102,1.4956457847529236,111,4,117,4,719.459365014678,722.4597483906509,2.012300753924137,3.512272830870643,721.4597743515442,None,722.4597483906509,None,,,,,,,,,,,,,,,,,,,,,,,,,,,,,,B,070,yes,SK,Vpav,2020_Feb_18_1421,Pavlovian,3.2.4,60.01516378498971,
CBred.png,b,,,2,0,8,0,,,,,,,,,,,,,,,,,723.5264401125987,None,,,,,,,,,,,,,,,0.016397835586758447,1.0160938516455644,725.0930845917574,None,726.0930652720235,None,b,1,2.623823948924837,726.0930652720235,None,725.0930845917574,None,159,4,725.0930845917574,None,0.012591485732627916,None,119,4,728.9763752858344,None,,,,,,,B,070,yes,SK,Vpav,2020_Feb_18_1421,Pavlovian,3.2.4,60.01516378498971,
CByellow.png,k,red.png,1,2,1,9,3,0,0,0,0,,,,,,,,,,,,,731.1930355377444,None,0.00036028285467182286,1.5006143071714177,111,4,117,4,732.8264167176076,735.826331288159,2.000605100109169,3.5006194389752636,734.8263394386704,None,735.8096653007015,None,,,,,,,,,,,,,,,,,,,,,,,,,,,,,,B,070,yes,SK,Vpav,2020_Feb_18_1421,Pavlovian,3.2.4,60.01516378498971,
CByellow.png,k,yellow.png,4,2,1,9,3,0,1,1,3,,,,,,,,,,,,,736.7263915113926,None,0.00187289728273754,1.50370389489035,111,4,117,4,738.2930495747387,741.2929632396772,2.003703442083861,3.5036906125733367,740.2929973510836,None,741.2762999690585,None,,,,,,,,,,,,,,,,,,,,,,,,,,,,,,B,070,yes,SK,Vpav,2020_Feb_18_1421,Pavlovian,3.2.4,60.01516378498971,
CByellow.png,k,green.png,2,2,1,9,3,0,2,2,1,,,,,,,,,,,,,742.2429631642099,None,0.00938791158296226,1.5019439274910837,111,4,117,4,743.8430256514748,746.8429257322259,2.001973058027943,3.5019436256206973,745.8429311659002,None,746.8262953655285,None,,,,,,,,,,,,,,,,,,,,,,,,,,,,,,B,070,yes,SK,Vpav,2020_Feb_18_1421,Pavlovian,3.2.4,60.01516378498971,
CByellow.png,k,blue.png,3,2,1,9,3,0,3,3,2,,,,,,,,,,,,,747.7097249201925,None,0.00031355324790638406,1.5005041846852691,111,4,117,4,749.5096600179622,752.5096751115034,2.000488034595037,None,751.5096234915891,None,752.4928998468004,None,,,,,,,,,,,,,,,,,,,,,,,,,,,,,,B,070,yes,SK,Vpav,2020_Feb_18_1421,Pavlovian,3.2.4,60.01516378498971,
CByellow.png,k,red.png,1,2,1,9,3,1,0,4,0,,,,,,,,,,,,,753.2262404250341,None,0.008877689482687856,1.5009615793915145,111,4,117,4,754.909584852121,757.9095274966603,2.0009617303257983,None,756.9095884745711,None,757.8928593961082,None,,,,,,,,,,,,,,,,,,,,,,,,,,,,,,B,070,yes,SK,Vpav,2020_Feb_18_1421,Pavlovian,3.2.4,60.01516378498971,
CByellow.png,k,green.png,2,2,1,9,3,1,1,5,1,,,,,,,,,,,,,758.7262094832731,None,0.010862550661840942,1.504987087479094,111,4,117,4,760.309551646329,763.3094924796424,2.0049833140928968,3.504945429302097,762.3094991208018,None,763.2928270959274,None,,,,,,,,,,,,,,,,,,,,,,,,,,,,,,B,070,yes,SK,Vpav,2020_Feb_18_1421,Pavlovian,3.2.4,60.01516378498971,
CByellow.png,k,blue.png,3,2,1,9,3,1,2,6,2,,,,,,,,,,,,,764.2095412317849,None,0.010488593059562845,1.5042554129249766,111,4,117,4,765.9261886541844,768.9261663157413,2.0042582806981954,None,767.9261303931107,None,768.9094574626251,None,,,,,,,,,,,,,,,,,,,,,,,,,,,,,,B,070,yes,SK,Vpav,2020_Feb_18_1421,Pavlovian,3.2.4,60.01516378498971,
CByellow.png,k,yellow.png,4,2,1,9,3,1,3,7,3,,,,,,,,,,,,,769.709494290868,None,0.0018546944702393375,1.5036334684209578,111,4,117,4,771.2595156482294,774.2594223701399,2.003632713744082,3.5036229029410606,773.2594308225234,None,774.2427603070028,None,,,,,,,,,,,,,,,,,,,,,,,,,,,,,,B,070,yes,SK,Vpav,2020_Feb_18_1421,Pavlovian,3.2.4,60.01516378498971,
CByellow.png,k,blue.png,3,2,1,9,3,2,0,8,2,,,,,,,,,,,,,775.24276664629,None,0.004210675666399766,1.508326533696163,111,4,117,4,776.8428131344008,779.8427409872693,2.008309176122566,3.508314156990309,778.8427325348857,None,779.826076207295,None,,,,,,,,,,,,,,,,,,,,,,,,,,,,,,B,070,yes,SK,Vpav,2020_Feb_18_1421,Pavlovian,3.2.4,60.01516378498971,
CByellow.png,k,red.png,1,2,1,9,3,2,1,9,0,,,,,,,,,,,,,780.7094215399939,None,0.009012927621370181,1.501245036113687,111,4,117,4,782.3760691887983,785.3760380961012,2.001247300144314,None,784.376051982159,None,785.3593524870394,None,,,,,,,,,,,,,,,,,,,,,,,,,,,,,,B,070,yes,SK,Vpav,2020_Feb_18_1421,Pavlovian,3.2.4,60.01516378498971,
CByellow.png,k,green.png,2,2,1,9,3,2,2,10,1,,,,,,,,,,,,,786.2260336435065,None,0.0019857366060023196,1.5038203566637094,111,4,117,4,787.7761150731658,790.7760531896438,2.0038337899168255,3.5038067724763096,789.7760534915142,None,790.7593204887289,None,,,,,,,,,,,,,,,,,,,,,,,,,,,,,,B,070,yes,SK,Vpav,2020_Feb_18_1421,Pavlovian,3.2.4,60.01516378498971,
CByellow.png,k,yellow.png,4,2,1,9,3,2,3,11,3,,,,,,,,,,,,,791.7093228282283,None,0.005001909334168886,1.509910178330756,111,4,117,4,793.2593302995319,796.2592889432253,2.009901876881486,3.509898405367494,795.2592964899977,None,796.2426199370602,None,,,,,,,,,,,,,,,,,,,,,,,,,,,,,,B,070,yes,SK,Vpav,2020_Feb_18_1421,Pavlovian,3.2.4,60.01516378498971,
CByellow.png,k,,,2,1,9,3,,,,,,,,,,,,,,,,,797.3259737221433,None,,,,,,,,,,,,,,,0.016467265881146886,1.016210373793001,798.8759745522875,None,799.8759331959827,None,k,1,1.6853313409865223,799.8759331959827,None,798.8759745522875,None,159,4,798.8759745522875,None,0.011159410447362461,None,119,4,801.8259421766397,None,,,,,,,B,070,yes,SK,Vpav,2020_Feb_18_1421,Pavlovian,3.2.4,60.01516378498971,
CBgreen.png,n,green.png,2,2,2,10,1,0,0,0,1,,,,,,,,,,,,,804.059270830976,None,0.0024869327680789866,1.5048923905924312,111,4,117,4,805.6593013199308,808.6592107586766,2.004864467540756,3.5048625053786964,807.6592170979657,None,808.6425523179914,None,,,,,,,,,,,,,,,,,,,,,,,,,,,,,,B,070,yes,SK,Vpav,2020_Feb_18_1421,Pavlovian,3.2.4,60.01516378498971,
CBgreen.png,n,blue.png,3,2,2,10,1,0,1,1,2,,,,,,,,,,,,,809.5592302293462,None,0.002235051735624438,1.5043099609865749,111,4,117,4,811.3425908065237,814.3425099051365,2.0042995464427804,None,813.3425132257162,None,814.3259245171957,None,,,,,,,,,,,,,,,,,,,,,,,,,,,,,,B,070,yes,SK,Vpav,2020_Feb_18_1421,Pavlovian,3.2.4,60.01516378498971,
CBgreen.png,n,red.png,1,2,2,10,1,0,2,2,0,,,,,,,,,,,,,815.0592098530651,None,0.010145335720153525,1.5035465899927658,111,4,117,4,816.6925623551961,819.692509225928,2.00354583531589,3.503552023668817,818.6924766238772,None,819.67582874867,None,,,,,,,,,,,,,,,,,,,,,,,,,,,,,,B,070,yes,SK,Vpav,2020_Feb_18_1421,Pavlovian,3.2.4,60.01516378498971,
CBgreen.png,n,yellow.png,4,2,2,10,1,0,3,3,3,,,,,,,,,,,,,820.5758279939928,None,0.011004822388713364,1.5052162980082358,111,4,117,4,822.1591840431065,825.1591073679119,2.0052451266747084,3.5052129774285277,824.1591146128139,None,825.1424440972933,None,,,,,,,,,,,,,,,,,,,,,,,,,,,,,,B,070,yes,SK,Vpav,2020_Feb_18_1421,Pavlovian,3.2.4,60.01516378498971,
CBgreen.png,n,green.png,2,2,2,10,1,1,0,4,1,,,,,,,,,,,,,826.0924645490431,None,0.0025998324636020698,1.5051018889589614,111,4,117,4,827.6424859064045,830.6424062125025,2.0050845313853642,3.505076229936094,829.6424360977162,None,830.6257402250449,None,,,,,,,,,,,,,,,,,,,,,,,,,,,,,,B,070,yes,SK,Vpav,2020_Feb_18_1421,Pavlovian,3.2.4,60.01516378498971,
CBgreen.png,n,yellow.png,4,2,2,10,1,1,1,5,3,,,,,,,,,,,,,831.5590678228327,None,0.0033611507333262125,1.5066172805982205,111,4,117,4,833.159151742926,836.1590394469731,2.0066150165675936,3.506612450664761,835.1590427675528,None,836.1423698370654,None,,,,,,,,,,,,,,,,,,,,,,,,,,,,,,B,070,yes,SK,Vpav,2020_Feb_18_1421,Pavlovian,3.2.4,60.01516378498971,
CBgreen.png,n,red.png,1,2,2,10,1,1,2,6,0,,,,,,,,,,,,,837.0924017599064,None,0.012906095529615413,1.5090072826369578,111,4,117,4,838.7924384372145,841.7923439516399,2.0090276589180576,None,840.7923502909289,None,841.7756722286376,None,,,,,,,,,,,,,,,,,,,,,,,,,,,,,,B,070,yes,SK,Vpav,2020_Feb_18_1421,Pavlovian,3.2.4,60.01516378498971,
CBgreen.png,n,blue.png,3,2,2,10,1,1,3,7,2,,,,,,,,,,,,,842.5756734361203,None,0.0002493453193892492,1.5004345430825197,111,4,117,4,844.2590691812511,847.2589795256099,2.000419298603447,None,846.2589828461896,None,847.2423280279527,None,,,,,,,,,,,,,,,,,,,,,,,,,,,,,,B,070,yes,SK,Vpav,2020_Feb_18_1421,Pavlovian,3.2.4,60.01516378498971,
CBgreen.png,n,yellow.png,4,2,2,10,1,2,0,8,3,,,,,,,,,,,,,848.0590175613361,None,0.01522868980646308,1.5137363912854198,111,4,117,4,849.5757286784847,852.575650192066,2.0137344291251793,3.5137068079438905,851.5756722286369,None,852.5589349996608,None,,,,,,,,,,,,,,,,,,,,,,,,,,,,,,B,070,yes,SK,Vpav,2020_Feb_18_1421,Pavlovian,3.2.4,60.01516378498971,
CBgreen.png,n,green.png,2,2,2,10,1,2,1,9,1,,,,,,,,,,,,,853.5923050103011,None,0.0014309885536931688,1.5027035250986955,111,4,117,4,855.1756411359402,858.1755698944216,2.00270277042182,3.502662772534677,857.1755732149995,None,858.1589485838485,None,,,,,,,,,,,,,,,,,,,,,,,,,,,,,,B,070,yes,SK,Vpav,2020_Feb_18_1421,Pavlovian,3.2.4,60.01516378498971,
CBgreen.png,n,red.png,1,2,2,10,1,2,2,10,0,,,,,,,,,,,,,859.0589155289908,None,0.007445221763191512,1.4981450338473223,111,4,117,4,860.6922813134406,863.6922185243038,2.0148030217278574,3.5148596225117217,862.6922025251497,None,863.6922185243038,None,,,,,,,,,,,,,,,,,,,,,,,,,,,,,,B,070,yes,SK,Vpav,2020_Feb_18_1421,Pavlovian,3.2.4,60.01516378498971,
CBgreen.png,n,blue.png,3,2,2,10,1,2,3,11,2,,,,,,,,,,,,,864.5755771393215,None,0.014147961996059166,1.5116567728509835,111,4,117,4,866.2755631023265,869.2754991057081,2.011577833625779,None,868.2755229535051,None,869.2588427781175,None,,,,,,,,,,,,,,,,,,,,,,,,,,,,,,B,070,yes,SK,Vpav,2020_Feb_18_1421,Pavlovian,3.2.4,60.01516378498971,
CBgreen.png,n,,,2,2,10,1,,,,,,,,,,,,,,,,,870.1588918321304,None,,,,,,,,,,,,,,,0.016366441017453326,1.0159540854438092,871.7088594564812,None,872.7088347030731,None,n,1,2.1687355385001865,872.7088347030731,None,871.7088594564812,None,159,4,871.7088594564812,None,0.012345159128017258,None,119,4,875.1421331703241,None,,,,,,,B,070,yes,SK,Vpav,2020_Feb_18_1421,Pavlovian,3.2.4,60.01516378498971,
CBblue.png,s,blue.png,3,2,3,11,2,0,0,0,2,,,,,,,,,,,,,877.3588139494514,None,0.004667496814363403,1.5092757061920565,111,4,117,4,879.0254923890807,882.0254256756252,2.009261367327781,3.509212615186698,881.0254265812382,None,882.0087515376545,None,,,,,,,,,,,,,,,,,,,,,,,,,,,,,,B,070,yes,SK,Vpav,2020_Feb_18_1421,Pavlovian,3.2.4,60.01516378498971,
CBblue.png,s,green.png,2,2,3,11,2,0,1,1,1,,,,,,,,,,,,,882.8754520138555,None,0.01218383934792655,1.5075125389630557,111,4,117,4,884.4421182277165,887.4420500049055,2.007500615063691,3.5075406129508337,886.442058457289,None,887.4253891492517,None,,,,,,,,,,,,,,,,,,,,,,,,,,,,,,B,070,yes,SK,Vpav,2020_Feb_18_1421,Pavlovian,3.2.4,60.01516378498971,
CBblue.png,s,yellow.png,4,2,3,11,2,0,2,2,3,,,,,,,,,,,,,888.375416242161,None,7.416966946038883e-05,1.5000480578419229,111,4,117,4,889.9087667821332,892.9087139547337,2.000044586326112,3.5000399073287554,891.9087205958931,None,892.8920192895475,None,,,,,,,,,,,,,,,,,,,,,,,,,,,,,,B,070,yes,SK,Vpav,2020_Feb_18_1421,Pavlovian,3.2.4,60.01516378498971,
CBblue.png,s,red.png,1,2,3,11,2,0,3,3,0,,,,,,,,,,,,,893.9086741077826,None,0.005590014114204678,1.5110857237741584,111,4,117,4,895.4920700038492,898.4919897062045,2.011081346647188,3.511079686357334,897.4919863856248,None,898.4753460571901,None,,,,,,,,,,,,,,,,,,,,,,,,,,,,,,B,070,yes,SK,Vpav,2020_Feb_18_1421,Pavlovian,3.2.4,60.01516378498971,
CBblue.png,s,yellow.png,4,2,3,11,2,1,0,4,3,,,,,,,,,,,,,899.3919943852015,None,0.005231240615103161,1.5103465930114908,111,4,117,4,901.0086842204564,904.0086757680729,2.010332857887988,3.5103305938573612,903.0086184126121,None,903.9919481989637,None,,,,,,,,,,,,,,,,,,,,,,,,,,,,,,B,070,yes,SK,Vpav,2020_Feb_18_1421,Pavlovian,3.2.4,60.01516378498971,
CBblue.png,s,green.png,2,2,3,11,2,1,1,5,1,,,,,,,,,,,,,904.9086822582958,None,0.003259631568653276,1.5063775045873626,111,4,117,4,906.4753445478345,909.4752497603895,2.006376749910487,3.5063690522038087,908.4752536847118,None,909.4585801504836,None,,,,,,,,,,,,,,,,,,,,,,,,,,,,,,B,070,yes,SK,Vpav,2020_Feb_18_1421,Pavlovian,3.2.4,60.01516378498971,
CBblue.png,s,red.png,1,2,3,11,2,1,2,6,0,,,,,,,,,,,,,910.375239043975,None,0.009832506962993648,1.502905023886342,111,4,117,4,911.991944878384,914.9918808817656,2.0029226833321445,3.5028995902121096,913.9919358222578,None,914.9752459870051,None,,,,,,,,,,,,,,,,,,,,,,,,,,,,,,B,070,yes,SK,Vpav,2020_Feb_18_1421,Pavlovian,3.2.4,60.01516378498971,
CBblue.png,s,blue.png,3,2,3,11,2,1,3,7,2,,,,,,,,,,,,,915.8918909944387,None,0.005078554342617281,1.5100212366160122,111,4,117,4,917.5085817353047,920.5085159274604,2.010053989601147,3.5100194253900554,919.5085307191312,None,920.4918508456158,None,,,,,,,,,,,,,,,,,,,,,,,,,,,,,,B,070,yes,SK,Vpav,2020_Feb_18_1421,Pavlovian,3.2.4,60.01516378498971,
CBblue.png,s,yellow.png,4,2,3,11,2,2,0,8,3,,,,,,,,,,,,,921.3752085550204,None,0.000263442687355564,1.5004788275346073,111,4,117,4,922.941869033335,925.9418249601913,2.000475657891002,3.5004782237920153,924.9418156021948,None,925.9251577652503,None,,,,,,,,,,,,,,,,,,,,,,,,,,,,,,B,070,yes,SK,Vpav,2020_Feb_18_1421,Pavlovian,3.2.4,60.01516378498971,
CBblue.png,s,blue.png,3,2,3,11,2,2,1,9,2,,,,,,,,,,,,,926.9084667225125,None,0.010941701195406495,1.5051202728936914,111,4,117,4,928.5751898390281,931.5751101451242,2.0051186126038374,None,930.5751466714974,None,931.5584610624337,None,,,,,,,,,,,,,,,,,,,,,,,,,,,,,,B,070,yes,SK,Vpav,2020_Feb_18_1421,Pavlovian,3.2.4,60.01516378498971,
CBblue.png,s,green.png,2,2,3,11,2,2,2,10,1,,,,,,,,,,,,,932.3751367097593,None,0.009380062942000222,1.5019397013002163,111,4,117,4,933.9584764578485,936.9584218192249,2.0019452859123703,3.5019339657555975,935.9584181967748,None,936.9417410400965,None,,,,,,,,,,,,,,,,,,,,,,,,,,,,,,B,070,yes,SK,Vpav,2020_Feb_18_1421,Pavlovian,3.2.4,60.01516378498971,
CBblue.png,s,red.png,1,2,3,11,2,2,3,11,0,,,,,,,,,,,,,937.8751021455464,None,0.004726965371446568,1.5093671730573988,111,4,117,4,939.5084501196161,942.5083882360941,2.00944792350856,3.5093297410730884,941.5084223474987,None,942.4917361346943,None,,,,,,,,,,,,,,,,,,,,,,,,,,,,,,B,070,yes,SK,Vpav,2020_Feb_18_1421,Pavlovian,3.2.4,60.01516378498971,
CBblue.png,s,,,2,3,11,2,,,,,,,,,,,,,,,,,943.491739455274,None,,,,,,,,,,,,,,,0.01648054819816025,1.016242372103079,945.0250338472688,None,946.0250235836593,None,s,1,3.4298163870589633,946.0250235836593,None,945.0250338472688,None,159,4,945.0250338472688,None,0.013465099955283222,None,119,4,949.708335106825,None,,,,,,,B,070,yes,SK,Vpav,2020_Feb_18_1421,Pavlovian,3.2.4,60.01516378498971,
,,,,,,,,,,,,,,,,,,,,,,,,,,,,,,,,,,,,,,,,,,,,,,,,,,,,,,,,,,,,,,,951.8412177469872,None,953.6083464269814,None,1021.6745611929946,None,,,,,,,,,,
